Time,Device name设备名称,Chip Time(),Acceleration X(g),Acceleration Y(g),Acceleration Z(g),Angular velocity X(°/s),Angular velocity Y(°/s),Angular velocity Z(°/s),Angle X(°),Angle Y(°),Angle Z(°),Magnetic field X(ʯt),Magnetic field Y(ʯt),Magnetic field Z(ʯt),Temperature(℃),Pressure(Pa),Height(m),Longitude(),Latitude(),GPS ground speed(km),GPS course(°),GPS height(m),Number of satellites(),Position location(),Horizontal position(),Vertical position(),Quaternions 0(),Quaternions 1(),Quaternions 2(),Quaternions 3()
 11:29:01.078,COM3, 2000-0-0 0:7:13.530, -0,094, -0,045, 0,996, 0,000, -0,183, -0,122, -2,247, 5,872, 15,579, 24,292, 138,150, -93,317, 36,10,,,,,,,, 0, 0,00, 0,00, 0,00, 0,98911, -0,02637, 0,04810, 0,13632,
 11:29:01.083,COM3, 2000-0-0 0:7:13.540, -0,108, -0,043, 0,997, 0,305, 0,122, 0,183, -2,247, 5,872, 15,579, 24,392, 138,200, -93,425, 35,97,,,,,,,, 0, 0,00, 0,00, 0,00, 0,98911, -0,02637, 0,04807, 0,13632,
 11:29:01.093,COM3, 2000-0-0 0:7:13.550, -0,096, -0,038, 1,012, -0,122, 0,122, -0,061, -2,247, 5,872, 15,579, 24,483, 138,242, -93,342, 35,97,,,,,,,, 0, 0,00, 0,00, 0,00, 0,98911, -0,02637, 0,04807, 0,13635,
 11:29:01.103,COM3, 2000-0-0 0:7:13.560, -0,105, -0,039, 0,984, 0,000, 0,183, 0,000, -2,247, 5,872, 15,579, 24,575, 138,292, -93,167, 36,16,,,,,,,, 0, 0,00, 0,00, 0,00, 0,98911, -0,02637, 0,04810, 0,13635,
 11:29:01.114,COM3, 2000-0-0 0:7:13.570, -0,096, -0,042, 0,991, -0,244, 0,244, 0,000, -2,252, 5,878, 15,579, 24,650, 138,317, -93,117, 36,10,,,,,,,, 0, 0,00, 0,00, 0,00, 0,98911, -0,02637, 0,04810, 0,13635,
 11:29:01.124,COM3, 2000-0-0 0:7:13.580, -0,108, -0,039, 0,958, 0,061, 0,061, 0,122, -2,252, 5,878, 15,584, 24,658, 138,308, -93,258, 36,10,,,,,,,, 0, 0,00, 0,00, 0,00, 0,98907, -0,02640, 0,04813, 0,13635,
 11:29:01.134,COM3, 2000-0-0 0:7:13.590, -0,095, -0,042, 0,984, -0,061, 0,000, 0,000, -2,252, 5,878, 15,584, 24,625, 138,275, -93,400, 36,10,,,,,,,, 0, 0,00, 0,00, 0,00, 0,98907, -0,02640, 0,04813, 0,13635,
 11:29:01.144,COM3, 2000-0-0 0:7:13.600, -0,106, -0,041, 0,978, 0,183, -0,061, 0,244, -2,252, 5,878, 15,584, 24,567, 138,258, -93,525, 35,97,,,,,,,, 0, 0,00, 0,00, 0,00, 0,98907, -0,02640, 0,04813, 0,13635,
 11:29:01.155,COM3, 2000-0-0 0:7:13.610, -0,099, -0,040, 1,002, 0,000, 0,000, 0,122, -2,252, 5,878, 15,584, 24,517, 138,267, -93,625, 36,04,,,,,,,, 0, 0,00, 0,00, 0,00, 0,98907, -0,02640, 0,04813, 0,13638,
 11:29:01.164,COM3, 2000-0-0 0:7:13.620, -0,107, -0,035, 0,992, 0,305, 0,000, 0,122, -2,252, 5,878, 15,584, 24,475, 138,258, -93,650, 36,04,,,,,,,, 0, 0,00, 0,00, 0,00, 0,98907, -0,02640, 0,04813, 0,13638,
 11:29:01.174,COM3, 2000-0-0 0:7:13.630, -0,097, -0,044, 1,003, 0,000, 0,061, 0,000, -2,252, 5,878, 15,584, 24,500, 138,242, -93,642, 36,10,,,,,,,, 0, 0,00, 0,00, 0,00, 0,98907, -0,02640, 0,04813, 0,13638,
 11:29:01.185,COM3, 2000-0-0 0:7:13.640, -0,105, -0,037, 0,975, 0,000, 0,000, 0,122, -2,252, 5,878, 15,584, 24,542, 138,225, -93,675, 36,16,,,,,,,, 0, 0,00, 0,00, 0,00, 0,98907, -0,02640, 0,04813, 0,13638,
 11:29:01.194,COM3, 2000-0-0 0:7:13.650, -0,097, -0,046, 0,982, -0,122, 0,061, 0,000, -2,252, 5,878, 15,584, 24,567, 138,183, -93,717, 36,04,,,,,,,, 0, 0,00, 0,00, 0,00, 0,98907, -0,02640, 0,04813, 0,13638,
 11:29:01.204,COM3, 2000-0-0 0:7:13.660, -0,102, -0,039, 0,967, 0,183, -0,183, 0,000, -2,252, 5,878, 15,584, 24,550, 138,167, -93,800, 36,04,,,,,,,, 0, 0,00, 0,00, 0,00, 0,98907, -0,02640, 0,04813, 0,13638,
 11:29:01.214,COM3, 2000-0-0 0:7:13.670, -0,096, -0,047, 0,994, 0,000, 0,122, 0,000, -2,252, 5,878, 15,584, 24,492, 138,167, -93,842, 36,04,,,,,,,, 0, 0,00, 0,00, 0,00, 0,98907, -0,02640, 0,04813, 0,13638,
 11:29:01.223,COM3, 2000-0-0 0:7:13.680, -0,108, -0,035, 0,981, 0,305, -0,244, 0,183, -2,252, 5,878, 15,590, 24,450, 138,175, -93,817, 36,16,,,,,,,, 0, 0,00, 0,00, 0,00, 0,98907, -0,02640, 0,04810, 0,13638,
 11:29:01.234,COM3, 2000-0-0 0:7:13.690, -0,096, -0,044, 1,004, 0,000, 0,061, 0,000, -2,252, 5,872, 15,590, 24,400, 138,183, -93,758, 36,10,,,,,,,, 0, 0,00, 0,00, 0,00, 0,98907, -0,02640, 0,04810, 0,13641,
 11:29:01.244,COM3, 2000-0-0 0:7:13.700, -0,105, -0,038, 0,987, 0,000, -0,183, 0,000, -2,252, 5,872, 15,590, 24,350, 138,183, -93,667, 36,16,,,,,,,, 0, 0,00, 0,00, 0,00, 0,98907, -0,02640, 0,04810, 0,13641,
 11:29:01.255,COM3, 2000-0-0 0:7:13.710, -0,100, -0,044, 0,995, -0,183, 0,061, 0,000, -2,252, 5,872, 15,590, 24,333, 138,142, -93,583, 36,10,,,,,,,, 0, 0,00, 0,00, 0,00, 0,98907, -0,02640, 0,04810, 0,13641,
 11:29:01.265,COM3, 2000-0-0 0:7:13.720, -0,105, -0,039, 0,974, 0,244, 0,000, 0,061, -2,252, 5,872, 15,590, 24,367, 138,142, -93,508, 36,29,,,,,,,, 0, 0,00, 0,00, 0,00, 0,98907, -0,02640, 0,04810, 0,13641,
 11:29:01.274,COM3, 2000-0-0 0:7:13.730, -0,097, -0,046, 0,985, 0,061, 0,122, 0,183, -2,252, 5,872, 15,590, 24,408, 138,150, -93,525, 36,10,,,,,,,, 0, 0,00, 0,00, 0,00, 0,98907, -0,02640, 0,04810, 0,13644,
 11:29:01.284,COM3, 2000-0-0 0:7:13.740, -0,104, -0,035, 0,977, 0,244, -0,183, 0,000, -2,252, 5,872, 15,595, 24,392, 138,133, -93,608, 36,04,,,,,,,, 0, 0,00, 0,00, 0,00, 0,98907, -0,02643, 0,04810, 0,13644,
 11:29:01.294,COM3, 2000-0-0 0:7:13.750, -0,102, -0,046, 1,000, 0,061, 0,366, 0,122, -2,252, 5,878, 15,595, 24,358, 138,133, -93,642, 36,23,,,,,,,, 0, 0,00, 0,00, 0,00, 0,98907, -0,02640, 0,04810, 0,13644,
 11:29:01.303,COM3, 2000-0-0 0:7:13.760, -0,104, -0,035, 0,987, 0,061, -0,122, -0,122, -2,252, 5,878, 15,595, 24,375, 138,133, -93,658, 36,10,,,,,,,, 0, 0,00, 0,00, 0,00, 0,98907, -0,02640, 0,04813, 0,13644,
 11:29:01.313,COM3, 2000-0-0 0:7:13.770, -0,102, -0,047, 1,000, 0,000, 0,122, 0,061, -2,252, 5,878, 15,595, 24,383, 138,108, -93,708, 36,10,,,,,,,, 0, 0,00, 0,00, 0,00, 0,98907, -0,02640, 0,04813, 0,13644,
 11:29:01.323,COM3, 2000-0-0 0:7:13.780, -0,103, -0,039, 0,980, 0,244, 0,000, 0,000, -2,252, 5,878, 15,595, 24,358, 138,083, -93,775, 36,29,,,,,,,, 0, 0,00, 0,00, 0,00, 0,98907, -0,02640, 0,04813, 0,13644,
 11:29:01.333,COM3, 2000-0-0 0:7:13.790, -0,099, -0,049, 0,983, 0,061, 0,305, 0,305, -2,252, 5,878, 15,595, 24,317, 138,025, -93,850, 36,16,,,,,,,, 0, 0,00, 0,00, 0,00, 0,98907, -0,02640, 0,04813, 0,13647,
 11:29:01.343,COM3, 2000-0-0 0:7:13.800, -0,102, -0,037, 0,979, 0,183, 0,000, 0,000, -2,252, 5,878, 15,595, 24,275, 137,975, -93,892, 36,10,,,,,,,, 0, 0,00, 0,00, 0,00, 0,98907, -0,02640, 0,04813, 0,13647,
 11:29:01.353,COM3, 2000-0-0 0:7:13.810, -0,100, -0,043, 0,987, 0,000, 0,183, 0,183, -2,252, 5,878, 15,595, 24,233, 137,917, -93,858, 36,04,,,,,,,, 0, 0,00, 0,00, 0,00, 0,98907, -0,02640, 0,04813, 0,13647,
 11:29:01.364,COM3, 2000-0-0 0:7:13.820, -0,104, -0,035, 0,983, 0,000, -0,305, 0,000, -2,252, 5,878, 15,595, 24,192, 137,908, -93,883, 35,97,,,,,,,, 0, 0,00, 0,00, 0,00, 0,98907, -0,02640, 0,04816, 0,13647,
 11:29:01.375,COM3, 2000-0-0 0:7:13.830, -0,100, -0,046, 0,994, 0,000, 0,061, 0,305, -2,252, 5,878, 15,601, 24,167, 137,900, -93,917, 36,16,,,,,,,, 0, 0,00, 0,00, 0,00, 0,98907, -0,02640, 0,04813, 0,13647,
 11:29:01.384,COM3, 2000-0-0 0:7:13.840, -0,104, -0,036, 0,988, 0,122, -0,122, -0,122, -2,252, 5,878, 15,601, 24,133, 137,867, -93,892, 36,23,,,,,,,, 0, 0,00, 0,00, 0,00, 0,98907, -0,02643, 0,04813, 0,13651,
 11:29:01.393,COM3, 2000-0-0 0:7:13.850, -0,099, -0,044, 0,996, 0,000, 0,244, 0,366, -2,252, 5,878, 15,601, 24,167, 137,850, -93,792, 36,23,,,,,,,, 0, 0,00, 0,00, 0,00, 0,98907, -0,02643, 0,04813, 0,13651,
 11:29:01.403,COM3, 2000-0-0 0:7:13.860, -0,102, -0,036, 0,975, 0,183, 0,000, -0,061, -2,252, 5,878, 15,601, 24,267, 137,900, -93,592, 35,97,,,,,,,, 0, 0,00, 0,00, 0,00, 0,98907, -0,02643, 0,04813, 0,13651,
 11:29:01.413,COM3, 2000-0-0 0:7:13.870, -0,104, -0,046, 0,985, -0,122, 0,549, 0,000, -2,252, 5,883, 15,601, 24,383, 138,017, -93,325, 36,29,,,,,,,, 0, 0,00, 0,00, 0,00, 0,98907, -0,02643, 0,04813, 0,13654,
 11:29:01.423,COM3, 2000-0-0 0:7:13.880, -0,101, -0,034, 0,983, 0,122, -0,122, -0,122, -2,252, 5,883, 15,601, 24,475, 138,108, -93,225, 36,23,,,,,,,, 0, 0,00, 0,00, 0,00, 0,98907, -0,02643, 0,04816, 0,13654,
 11:29:01.434,COM3, 2000-0-0 0:7:13.890, -0,103, -0,044, 0,988, 0,122, 0,000, 0,244, -2,252, 5,878, 15,601, 24,492, 138,133, -93,250, 36,29,,,,,,,, 0, 0,00, 0,00, 0,00, 0,98907, -0,02643, 0,04816, 0,13651,
 11:29:01.444,COM3, 2000-0-0 0:7:13.900, -0,101, -0,037, 0,986, 0,000, -0,366, 0,000, -2,252, 5,878, 15,601, 24,475, 138,117, -93,308, 36,16,,,,,,,, 0, 0,00, 0,00, 0,00, 0,98907, -0,02643, 0,04813, 0,13651,
 11:29:01.454,COM3, 2000-0-0 0:7:13.910, -0,103, -0,045, 0,992, 0,000, 0,061, 0,244, -2,252, 5,878, 15,601, 24,467, 138,150, -93,383, 36,10,,,,,,,, 0, 0,00, 0,00, 0,00, 0,98907, -0,02643, 0,04813, 0,13651,
 11:29:01.463,COM3, 2000-0-0 0:7:13.920, -0,099, -0,037, 0,989, 0,122, -0,122, -0,061, -2,252, 5,878, 15,601, 24,450, 138,200, -93,517, 36,23,,,,,,,, 0, 0,00, 0,00, 0,00, 0,98907, -0,02643, 0,04813, 0,13654,
 11:29:01.472,COM3, 2000-0-0 0:7:13.930, -0,102, -0,044, 0,982, 0,000, 0,305, 0,122, -2,258, 5,878, 15,601, 24,425, 138,217, -93,625, 36,04,,,,,,,, 0, 0,00, 0,00, 0,00, 0,98907, -0,02643, 0,04813, 0,13654,
 11:29:01.482,COM3, 2000-0-0 0:7:13.940, -0,101, -0,036, 0,982, 0,183, -0,061, -0,061, -2,252, 5,878, 15,606, 24,400, 138,200, -93,683, 36,16,,,,,,,, 0, 0,00, 0,00, 0,00, 0,98907, -0,02643, 0,04813, 0,13654,
 11:29:01.492,COM3, 2000-0-0 0:7:13.950, -0,103, -0,042, 0,988, 0,122, 0,244, 0,305, -2,252, 5,878, 15,606, 24,383, 138,183, -93,658, 36,10,,,,,,,, 0, 0,00, 0,00, 0,00, 0,98904, -0,02643, 0,04813, 0,13657,
 11:29:01.502,COM3, 2000-0-0 0:7:13.960, -0,101, -0,038, 0,982, 0,122, -0,366, 0,000, -2,252, 5,878, 15,606, 24,392, 138,183, -93,667, 36,10,,,,,,,, 0, 0,00, 0,00, 0,00, 0,98904, -0,02643, 0,04813, 0,13657,
 11:29:01.512,COM3, 2000-0-0 0:7:13.970, -0,104, -0,042, 0,987, 0,000, 0,061, 0,244, -2,252, 5,878, 15,606, 24,408, 138,192, -93,775, 36,23,,,,,,,, 0, 0,00, 0,00, 0,00, 0,98904, -0,02643, 0,04813, 0,13657,
 11:29:01.523,COM3, 2000-0-0 0:7:13.980, -0,100, -0,037, 0,992, 0,122, -0,183, 0,000, -2,252, 5,878, 15,606, 24,400, 138,167, -93,833, 36,10,,,,,,,, 0, 0,00, 0,00, 0,00, 0,98904, -0,02643, 0,04813, 0,13657,
 11:29:01.533,COM3, 2000-0-0 0:7:13.990, -0,103, -0,048, 0,988, -0,061, 0,305, 0,305, -2,252, 5,878, 15,612, 24,375, 138,167, -93,867, 36,10,,,,,,,, 0, 0,00, 0,00, 0,00, 0,98904, -0,02643, 0,04813, 0,13657,
 11:29:01.544,COM3, 2000-0-0 0:7:14.000, -0,101, -0,037, 0,979, 0,061, 0,061, -0,122, -2,252, 5,878, 15,612, 24,408, 138,158, -93,850, 36,04,,,,,,,, 0, 0,00, 0,00, 0,00, 0,98904, -0,02643, 0,04813, 0,13660,
 11:29:01.553,COM3, 2000-0-0 0:7:14.010, -0,104, -0,043, 0,985, 0,000, 0,366, 0,061, -2,252, 5,883, 15,606, 24,408, 138,192, -93,792, 36,10,,,,,,,, 0, 0,00, 0,00, 0,00, 0,98904, -0,02643, 0,04816, 0,13660,
 11:29:01.563,COM3, 2000-0-0 0:7:14.020, -0,100, -0,036, 0,984, 0,061, 0,000, -0,122, -2,252, 5,883, 15,606, 24,375, 138,208, -93,767, 36,23,,,,,,,, 0, 0,00, 0,00, 0,00, 0,98904, -0,02646, 0,04816, 0,13660,
 11:29:01.573,COM3, 2000-0-0 0:7:14.030, -0,103, -0,044, 0,988, 0,000, 0,183, 0,183, -2,258, 5,883, 15,606, 24,383, 138,183, -93,725, 36,16,,,,,,,, 0, 0,00, 0,00, 0,00, 0,98904, -0,02643, 0,04816, 0,13660,
 11:29:01.583,COM3, 2000-0-0 0:7:14.040, -0,100, -0,036, 0,985, 0,061, -0,183, 0,000, -2,258, 5,883, 15,612, 24,383, 138,192, -93,667, 36,10,,,,,,,, 0, 0,00, 0,00, 0,00, 0,98904, -0,02646, 0,04816, 0,13660,
 11:29:01.593,COM3, 2000-0-0 0:7:14.050, -0,106, -0,043, 0,987, 0,061, 0,183, 0,183, -2,258, 5,883, 15,612, 24,367, 138,208, -93,642, 36,16,,,,,,,, 0, 0,00, 0,00, 0,00, 0,98904, -0,02646, 0,04816, 0,13660,
 11:29:01.603,COM3, 2000-0-0 0:7:14.060, -0,098, -0,038, 0,990, 0,000, -0,183, -0,122, -2,258, 5,883, 15,612, 24,350, 138,217, -93,625, 36,04,,,,,,,, 0, 0,00, 0,00, 0,00, 0,98904, -0,02646, 0,04816, 0,13660,
 11:29:01.612,COM3, 2000-0-0 0:7:14.070, -0,103, -0,043, 0,983, 0,000, 0,122, 0,305, -2,258, 5,883, 15,612, 24,292, 138,175, -93,583, 36,10,,,,,,,, 0, 0,00, 0,00, 0,00, 0,98904, -0,02646, 0,04816, 0,13660,
 11:29:01.623,COM3, 2000-0-0 0:7:14.080, -0,098, -0,038, 0,987, 0,000, -0,305, 0,000, -2,258, 5,883, 15,612, 24,200, 138,108, -93,600, 36,10,,,,,,,, 0, 0,00, 0,00, 0,00, 0,98904, -0,02646, 0,04816, 0,13663,
 11:29:01.633,COM3, 2000-0-0 0:7:14.090, -0,104, -0,045, 0,981, 0,061, 0,244, -0,061, -2,258, 5,883, 15,612, 24,117, 138,050, -93,683, 36,04,,,,,,,, 0, 0,00, 0,00, 0,00, 0,98904, -0,02646, 0,04816, 0,13663,
 11:29:01.643,COM3, 2000-0-0 0:7:14.100, -0,100, -0,037, 0,989, 0,000, -0,366, 0,000, -2,258, 5,878, 15,612, 24,075, 138,008, -93,750, 36,04,,,,,,,, 0, 0,00, 0,00, 0,00, 0,98904, -0,02646, 0,04816, 0,13663,
 11:29:01.653,COM3, 2000-0-0 0:7:14.110, -0,104, -0,044, 0,983, 0,061, 0,183, 0,244, -2,258, 5,883, 15,617, 24,042, 138,000, -93,783, 36,16,,,,,,,, 0, 0,00, 0,00, 0,00, 0,98904, -0,02646, 0,04813, 0,13663,
 11:29:01.662,COM3, 2000-0-0 0:7:14.120, -0,096, -0,039, 0,987, 0,061, -0,122, 0,061, -2,258, 5,878, 15,617, 24,017, 138,008, -93,825, 36,29,,,,,,,, 0, 0,00, 0,00, 0,00, 0,98904, -0,02646, 0,04816, 0,13666,
 11:29:01.672,COM3, 2000-0-0 0:7:14.130, -0,105, -0,043, 0,987, 0,000, 0,244, 0,183, -2,258, 5,883, 15,617, 24,000, 137,983, -93,867, 36,16,,,,,,,, 0, 0,00, 0,00, 0,00, 0,98904, -0,02646, 0,04813, 0,13666,
 11:29:01.683,COM3, 2000-0-0 0:7:14.140, -0,098, -0,038, 0,986, 0,183, -0,183, 0,000, -2,252, 5,878, 15,617, 24,008, 137,967, -93,900, 36,10,,,,,,,, 0, 0,00, 0,00, 0,00, 0,98904, -0,02646, 0,04816, 0,13666,
 11:29:01.693,COM3, 2000-0-0 0:7:14.150, -0,104, -0,041, 0,981, 0,000, 0,061, 0,244, -2,252, 5,878, 15,617, 24,033, 137,942, -93,942, 36,04,,,,,,,, 0, 0,00, 0,00, 0,00, 0,98904, -0,02643, 0,04813, 0,13666,
 11:29:01.702,COM3, 2000-0-0 0:7:14.160, -0,097, -0,038, 0,985, 0,183, -0,305, 0,000, -2,252, 5,878, 15,617, 24,058, 137,925, -93,967, 36,04,,,,,,,, 0, 0,00, 0,00, 0,00, 0,98904, -0,02646, 0,04813, 0,13666,
 11:29:01.713,COM3, 2000-0-0 0:7:14.170, -0,104, -0,044, 0,984, 0,183, 0,244, 0,183, -2,252, 5,878, 15,617, 24,083, 137,892, -94,000, 36,04,,,,,,,, 0, 0,00, 0,00, 0,00, 0,98904, -0,02643, 0,04813, 0,13666,
 11:29:01.723,COM3, 2000-0-0 0:7:14.180, -0,095, -0,038, 0,988, 0,183, -0,122, -0,061, -2,252, 5,878, 15,617, 24,033, 137,875, -94,033, 36,10,,,,,,,, 0, 0,00, 0,00, 0,00, 0,98904, -0,02643, 0,04813, 0,13669,
 11:29:01.733,COM3, 2000-0-0 0:7:14.190, -0,106, -0,042, 0,982, 0,000, 0,244, 0,305, -2,252, 5,878, 15,623, 23,958, 137,875, -94,008, 36,23,,,,,,,, 0, 0,00, 0,00, 0,00, 0,98904, -0,02643, 0,04813, 0,13669,
 11:29:01.742,COM3, 2000-0-0 0:7:14.200, -0,096, -0,039, 0,995, 0,000, 0,000, 0,000, -2,252, 5,878, 15,623, 23,925, 137,867, -93,992, 36,10,,,,,,,, 0, 0,00, 0,00, 0,00, 0,98904, -0,02643, 0,04813, 0,13669,
 11:29:01.752,COM3, 2000-0-0 0:7:14.210, -0,105, -0,045, 0,983, 0,000, 0,244, 0,244, -2,252, 5,883, 15,623, 23,900, 137,858, -93,967, 36,04,,,,,,,, 0, 0,00, 0,00, 0,00, 0,98904, -0,02643, 0,04813, 0,13669,
 11:29:01.762,COM3, 2000-0-0 0:7:14.220, -0,097, -0,037, 0,987, 0,000, -0,061, 0,000, -2,252, 5,883, 15,623, 23,892, 137,850, -94,000, 36,35,,,,,,,, 0, 0,00, 0,00, 0,00, 0,98904, -0,02646, 0,04816, 0,13672,
 11:29:01.772,COM3, 2000-0-0 0:7:14.230, -0,106, -0,044, 0,981, 0,061, 0,244, 0,244, -2,252, 5,883, 15,623, 23,908, 137,833, -94,017, 36,10,,,,,,,, 0, 0,00, 0,00, 0,00, 0,98904, -0,02646, 0,04816, 0,13672,
 11:29:01.781,COM3, 2000-0-0 0:7:14.240, -0,098, -0,038, 0,991, 0,122, -0,061, 0,000, -2,252, 5,883, 15,623, 23,925, 137,808, -94,017, 36,23,,,,,,,, 0, 0,00, 0,00, 0,00, 0,98904, -0,02646, 0,04816, 0,13672,
 11:29:01.791,COM3, 2000-0-0 0:7:14.250, -0,105, -0,045, 0,979, 0,122, 0,244, 0,244, -2,252, 5,883, 15,628, 23,925, 137,775, -93,983, 36,04,,,,,,,, 0, 0,00, 0,00, 0,00, 0,98904, -0,02643, 0,04816, 0,13672,
 11:29:01.801,COM3, 2000-0-0 0:7:14.260, -0,095, -0,039, 0,991, 0,122, -0,183, 0,000, -2,252, 5,883, 15,628, 23,950, 137,792, -94,008, 36,04,,,,,,,, 0, 0,00, 0,00, 0,00, 0,98904, -0,02646, 0,04816, 0,13675,
 11:29:01.812,COM3, 2000-0-0 0:7:14.270, -0,104, -0,042, 0,981, 0,061, 0,183, 0,061, -2,252, 5,883, 15,628, 23,992, 137,817, -94,058, 36,23,,,,,,,, 0, 0,00, 0,00, 0,00, 0,98904, -0,02643, 0,04816, 0,13675,
 11:29:01.823,COM3, 2000-0-0 0:7:14.280, -0,097, -0,039, 0,990, 0,122, -0,244, -0,122, -2,252, 5,883, 15,628, 23,983, 137,825, -94,025, 36,16,,,,,,,, 0, 0,00, 0,00, 0,00, 0,98904, -0,02643, 0,04816, 0,13675,
 11:29:01.832,COM3, 2000-0-0 0:7:14.290, -0,106, -0,044, 0,981, 0,000, 0,122, 0,000, -2,252, 5,883, 15,628, 23,967, 137,842, -93,958, 36,16,,,,,,,, 0, 0,00, 0,00, 0,00, 0,98904, -0,02643, 0,04816, 0,13675,
 11:29:01.842,COM3, 2000-0-0 0:7:14.300, -0,098, -0,039, 0,987, 0,183, -0,244, 0,000, -2,252, 5,883, 15,628, 23,950, 137,858, -93,933, 36,16,,,,,,,, 0, 0,00, 0,00, 0,00, 0,98904, -0,02643, 0,04816, 0,13675,
 11:29:01.852,COM3, 2000-0-0 0:7:14.310, -0,107, -0,043, 0,982, 0,000, 0,122, 0,305, -2,252, 5,883, 15,628, 23,925, 137,867, -93,917, 36,04,,,,,,,, 0, 0,00, 0,00, 0,00, 0,98904, -0,02643, 0,04816, 0,13675,
 11:29:01.862,COM3, 2000-0-0 0:7:14.320, -0,094, -0,039, 0,988, 0,000, -0,244, -0,061, -2,252, 5,878, 15,628, 23,933, 137,858, -93,917, 36,16,,,,,,,, 0, 0,00, 0,00, 0,00, 0,98904, -0,02643, 0,04816, 0,13675,
 11:29:01.872,COM3, 2000-0-0 0:7:14.330, -0,108, -0,042, 0,989, 0,000, 0,061, 0,244, -2,252, 5,878, 15,628, 23,925, 137,867, -93,908, 36,10,,,,,,,, 0, 0,00, 0,00, 0,00, 0,98901, -0,02643, 0,04813, 0,13678,
 11:29:01.881,COM3, 2000-0-0 0:7:14.340, -0,095, -0,039, 0,987, 0,183, -0,244, 0,000, -2,252, 5,878, 15,634, 23,883, 137,875, -93,892, 35,97,,,,,,,, 0, 0,00, 0,00, 0,00, 0,98904, -0,02643, 0,04813, 0,13678,
 11:29:01.891,COM3, 2000-0-0 0:7:14.350, -0,106, -0,043, 0,983, 0,000, 0,305, 0,000, -2,252, 5,878, 15,634, 23,850, 137,883, -93,925, 36,10,,,,,,,, 0, 0,00, 0,00, 0,00, 0,98901, -0,02643, 0,04813, 0,13678,
 11:29:01.901,COM3, 2000-0-0 0:7:14.360, -0,096, -0,037, 0,990, 0,061, -0,244, 0,000, -2,252, 5,878, 15,634, 23,850, 137,883, -93,950, 36,23,,,,,,,, 0, 0,00, 0,00, 0,00, 0,98904, -0,02643, 0,04813, 0,13678,
 11:29:01.911,COM3, 2000-0-0 0:7:14.370, -0,106, -0,042, 0,980, 0,000, 0,305, 0,305, -2,252, 5,878, 15,634, 23,858, 137,908, -93,908, 36,10,,,,,,,, 0, 0,00, 0,00, 0,00, 0,98901, -0,02643, 0,04813, 0,13678,
 11:29:01.920,COM3, 2000-0-0 0:7:14.380, -0,096, -0,037, 0,990, 0,061, -0,305, 0,000, -2,252, 5,878, 15,634, 23,892, 137,950, -93,867, 36,10,,,,,,,, 0, 0,00, 0,00, 0,00, 0,98901, -0,02643, 0,04813, 0,13681,
 11:29:01.932,COM3, 2000-0-0 0:7:14.390, -0,104, -0,042, 0,981, 0,000, 0,305, 0,244, -2,252, 5,878, 15,634, 23,900, 137,975, -93,958, 36,10,,,,,,,, 0, 0,00, 0,00, 0,00, 0,98901, -0,02643, 0,04813, 0,13681,
 11:29:01.942,COM3, 2000-0-0 0:7:14.400, -0,097, -0,039, 0,991, 0,244, -0,183, -0,122, -2,252, 5,878, 15,634, 23,883, 138,000, -94,033, 36,16,,,,,,,, 0, 0,00, 0,00, 0,00, 0,98901, -0,02643, 0,04813, 0,13681,
 11:29:01.952,COM3, 2000-0-0 0:7:14.410, -0,106, -0,042, 0,981, 0,000, 0,183, 0,305, -2,252, 5,878, 15,634, 23,867, 138,025, -94,017, 36,29,,,,,,,, 0, 0,00, 0,00, 0,00, 0,98901, -0,02643, 0,04813, 0,13681,
 11:29:01.961,COM3, 2000-0-0 0:7:14.420, -0,098, -0,037, 0,989, 0,000, -0,122, -0,061, -2,252, 5,878, 15,634, 23,875, 138,017, -93,892, 36,10,,,,,,,, 0, 0,00, 0,00, 0,00, 0,98901, -0,02643, 0,04813, 0,13681,
 11:29:01.971,COM3, 2000-0-0 0:7:14.430, -0,106, -0,045, 0,979, 0,000, 0,366, 0,122, -2,252, 5,878, 15,634, 23,900, 137,975, -93,825, 36,10,,,,,,,, 0, 0,00, 0,00, 0,00, 0,98901, -0,02643, 0,04813, 0,13681,
 11:29:01.981,COM3, 2000-0-0 0:7:14.440, -0,101, -0,039, 0,989, 0,122, 0,000, 0,000, -2,252, 5,883, 15,634, 23,917, 137,958, -93,867, 36,16,,,,,,,, 0, 0,00, 0,00, 0,00, 0,98901, -0,02643, 0,04813, 0,13681,
 11:29:01.991,COM3, 2000-0-0 0:7:14.450, -0,106, -0,044, 0,981, 0,000, 0,183, 0,061, -2,252, 5,883, 15,639, 23,892, 137,967, -93,958, 36,10,,,,,,,, 0, 0,00, 0,00, 0,00, 0,98901, -0,02643, 0,04813, 0,13681,
 11:29:02.000,COM3, 2000-0-0 0:7:14.460, -0,098, -0,039, 0,985, 0,183, -0,183, 0,000, -2,252, 5,883, 15,639, 23,850, 137,950, -93,950, 36,10,,,,,,,, 0, 0,00, 0,00, 0,00, 0,98901, -0,02643, 0,04816, 0,13684,
 11:29:02.013,COM3, 2000-0-0 0:7:14.470, -0,105, -0,043, 0,986, 0,000, 0,244, 0,183, -2,252, 5,883, 15,639, 23,858, 137,942, -93,917, 36,04,,,,,,,, 0, 0,00, 0,00, 0,00, 0,98901, -0,02643, 0,04816, 0,13684,
 11:29:02.021,COM3, 2000-0-0 0:7:14.480, -0,095, -0,038, 0,986, 0,061, -0,305, -0,122, -2,252, 5,883, 15,639, 23,892, 137,950, -93,883, 36,04,,,,,,,, 0, 0,00, 0,00, 0,00, 0,98901, -0,02643, 0,04816, 0,13684,
 11:29:02.031,COM3, 2000-0-0 0:7:14.490, -0,106, -0,043, 0,983, 0,000, 0,305, 0,244, -2,252, 5,883, 15,639, 23,917, 137,950, -93,850, 36,10,,,,,,,, 0, 0,00, 0,00, 0,00, 0,98901, -0,02643, 0,04816, 0,13684,
 11:29:02.041,COM3, 2000-0-0 0:7:14.500, -0,095, -0,039, 0,989, 0,061, -0,305, 0,000, -2,252, 5,883, 15,639, 23,925, 137,942, -93,842, 36,10,,,,,,,, 0, 0,00, 0,00, 0,00, 0,98901, -0,02643, 0,04816, 0,13687,
 11:29:02.052,COM3, 2000-0-0 0:7:14.510, -0,105, -0,044, 0,981, 0,000, 0,244, 0,122, -2,252, 5,883, 15,639, 23,958, 137,933, -93,883, 36,04,,,,,,,, 0, 0,00, 0,00, 0,00, 0,98901, -0,02643, 0,04816, 0,13687,
 11:29:02.061,COM3, 2000-0-0 0:7:14.520, -0,100, -0,038, 0,989, 0,000, -0,122, -0,061, -2,252, 5,883, 15,645, 23,983, 137,925, -93,900, 36,35,,,,,,,, 0, 0,00, 0,00, 0,00, 0,98901, -0,02643, 0,04816, 0,13687,
 11:29:02.071,COM3, 2000-0-0 0:7:14.530, -0,104, -0,042, 0,980, 0,122, 0,183, 0,183, -2,252, 5,883, 15,645, 24,042, 137,900, -93,917, 35,97,,,,,,,, 0, 0,00, 0,00, 0,00, 0,98901, -0,02643, 0,04816, 0,13687,
 11:29:02.081,COM3, 2000-0-0 0:7:14.540, -0,098, -0,038, 0,992, 0,183, -0,366, 0,000, -2,252, 5,883, 15,645, 24,092, 137,925, -93,842, 35,97,,,,,,,, 0, 0,00, 0,00, 0,00, 0,98901, -0,02643, 0,04816, 0,13687,
 11:29:02.091,COM3, 2000-0-0 0:7:14.550, -0,104, -0,042, 0,985, -0,061, 0,183, 0,244, -2,252, 5,883, 15,645, 24,225, 138,033, -93,592, 36,04,,,,,,,, 0, 0,00, 0,00, 0,00, 0,98901, -0,02643, 0,04816, 0,13690,
 11:29:02.101,COM3, 2000-0-0 0:7:14.560, -0,099, -0,039, 0,988, 0,000, -0,305, 0,000, -2,252, 5,883, 15,645, 24,467, 138,175, -93,367, 36,04,,,,,,,, 0, 0,00, 0,00, 0,00, 0,98901, -0,02643, 0,04816, 0,13690,
 11:29:02.111,COM3, 2000-0-0 0:7:14.570, -0,105, -0,043, 0,983, 0,000, 0,061, 0,183, -2,252, 5,883, 15,645, 24,667, 138,292, -93,167, 36,10,,,,,,,, 0, 0,00, 0,00, 0,00, 0,98901, -0,02643, 0,04816, 0,13690,
 11:29:02.121,COM3, 2000-0-0 0:7:14.580, -0,102, -0,038, 0,990, 0,305, -0,122, 0,000, -2,247, 5,883, 15,645, 24,775, 138,367, -92,983, 36,10,,,,,,,, 0, 0,00, 0,00, 0,00, 0,98901, -0,02643, 0,04816, 0,13690,
 11:29:02.131,COM3, 2000-0-0 0:7:14.590, -0,105, -0,043, 0,982, -0,061, 0,183, 0,183, -2,252, 5,883, 15,645, 24,808, 138,425, -92,933, 36,35,,,,,,,, 0, 0,00, 0,00, 0,00, 0,98901, -0,02640, 0,04816, 0,13690,
 11:29:02.141,COM3, 2000-0-0 0:7:14.600, -0,098, -0,039, 0,993, 0,061, -0,366, -0,122, -2,252, 5,878, 15,645, 24,850, 138,483, -92,892, 36,10,,,,,,,, 0, 0,00, 0,00, 0,00, 0,98901, -0,02643, 0,04816, 0,13693,
 11:29:02.151,COM3, 2000-0-0 0:7:14.610, -0,102, -0,044, 0,983, -0,061, 0,122, 0,122, -2,252, 5,878, 15,645, 24,908, 138,550, -92,775, 36,04,,,,,,,, 0, 0,00, 0,00, 0,00, 0,98901, -0,02643, 0,04813, 0,13693,
 11:29:02.161,COM3, 2000-0-0 0:7:14.620, -0,098, -0,037, 0,985, 0,061, -0,061, -0,061, -2,252, 5,878, 15,650, 24,983, 138,575, -92,742, 36,16,,,,,,,, 0, 0,00, 0,00, 0,00, 0,98901, -0,02643, 0,04813, 0,13693,
 11:29:02.171,COM3, 2000-0-0 0:7:14.630, -0,104, -0,044, 0,992, 0,000, 0,305, 0,061, -2,252, 5,883, 15,650, 24,983, 138,575, -92,892, 36,29,,,,,,,, 0, 0,00, 0,00, 0,00, 0,98901, -0,02643, 0,04813, 0,13693,
 11:29:02.181,COM3, 2000-0-0 0:7:14.640, -0,098, -0,040, 0,991, 0,183, -0,244, 0,000, -2,252, 5,883, 15,650, 24,925, 138,525, -93,133, 35,97,,,,,,,, 0, 0,00, 0,00, 0,00, 0,98901, -0,02643, 0,04816, 0,13693,
 11:29:02.191,COM3, 2000-0-0 0:7:14.650, -0,106, -0,044, 0,985, 0,000, 0,366, 0,000, -2,252, 5,883, 15,650, 24,900, 138,492, -93,342, 36,23,,,,,,,, 0, 0,00, 0,00, 0,00, 0,98901, -0,02643, 0,04816, 0,13693,
 11:29:02.201,COM3, 2000-0-0 0:7:14.660, -0,099, -0,039, 0,985, 0,122, -0,061, -0,061, -2,252, 5,883, 15,650, 24,900, 138,475, -93,575, 36,23,,,,,,,, 0, 0,00, 0,00, 0,00, 0,98901, -0,02643, 0,04816, 0,13693,
 11:29:02.211,COM3, 2000-0-0 0:7:14.670, -0,106, -0,042, 0,989, 0,000, 0,305, 0,122, -2,252, 5,883, 15,650, 24,933, 138,492, -93,825, 36,10,,,,,,,, 0, 0,00, 0,00, 0,00, 0,98901, -0,02643, 0,04816, 0,13693,
 11:29:02.221,COM3, 2000-0-0 0:7:14.680, -0,098, -0,038, 0,988, 0,183, -0,061, -0,061, -2,252, 5,883, 15,650, 24,975, 138,500, -94,017, 36,16,,,,,,,, 0, 0,00, 0,00, 0,00, 0,98901, -0,02646, 0,04819, 0,13696,
 11:29:02.231,COM3, 2000-0-0 0:7:14.690, -0,104, -0,044, 0,988, 0,061, 0,183, 0,183, -2,252, 5,889, 15,650, 24,983, 138,467, -94,158, 36,10,,,,,,,, 0, 0,00, 0,00, 0,00, 0,98901, -0,02643, 0,04819, 0,13696,
 11:29:02.241,COM3, 2000-0-0 0:7:14.700, -0,101, -0,038, 0,982, 0,122, -0,183, 0,000, -2,252, 5,883, 15,650, 24,958, 138,450, -94,200, 36,16,,,,,,,, 0, 0,00, 0,00, 0,00, 0,98901, -0,02643, 0,04819, 0,13696,
 11:29:02.251,COM3, 2000-0-0 0:7:14.710, -0,102, -0,043, 0,985, -0,122, 0,244, 0,122, -2,252, 5,889, 15,656, 24,933, 138,492, -94,258, 36,10,,,,,,,, 0, 0,00, 0,00, 0,00, 0,98901, -0,02643, 0,04819, 0,13696,
 11:29:02.261,COM3, 2000-0-0 0:7:14.720, -0,101, -0,037, 0,990, 0,244, -0,061, -0,061, -2,252, 5,883, 15,656, 24,933, 138,550, -94,317, 36,29,,,,,,,, 0, 0,00, 0,00, 0,00, 0,98898, -0,02646, 0,04819, 0,13696,
 11:29:02.271,COM3, 2000-0-0 0:7:14.730, -0,101, -0,043, 0,983, 0,000, 0,244, 0,183, -2,252, 5,889, 15,656, 24,917, 138,558, -94,308, 36,04,,,,,,,, 0, 0,00, 0,00, 0,00, 0,98898, -0,02643, 0,04819, 0,13699,
 11:29:02.281,COM3, 2000-0-0 0:7:14.740, -0,100, -0,039, 0,984, 0,122, -0,244, -0,061, -2,252, 5,883, 15,656, 24,900, 138,567, -94,325, 36,04,,,,,,,, 0, 0,00, 0,00, 0,00, 0,98898, -0,02646, 0,04819, 0,13699,
 11:29:02.291,COM3, 2000-0-0 0:7:14.750, -0,102, -0,042, 0,988, -0,122, 0,244, 0,000, -2,252, 5,889, 15,656, 24,933, 138,592, -94,292, 36,10,,,,,,,, 0, 0,00, 0,00, 0,00, 0,98898, -0,02646, 0,04819, 0,13699,
 11:29:02.301,COM3, 2000-0-0 0:7:14.760, -0,102, -0,039, 0,982, 0,183, -0,122, -0,122, -2,252, 5,883, 15,656, 24,925, 138,592, -94,192, 36,29,,,,,,,, 0, 0,00, 0,00, 0,00, 0,98901, -0,02646, 0,04819, 0,13699,
 11:29:02.311,COM3, 2000-0-0 0:7:14.770, -0,103, -0,043, 0,993, -0,183, 0,183, 0,061, -2,252, 5,883, 15,656, 24,892, 138,542, -94,158, 36,10,,,,,,,, 0, 0,00, 0,00, 0,00, 0,98898, -0,02646, 0,04819, 0,13699,
 11:29:02.321,COM3, 2000-0-0 0:7:14.780, -0,101, -0,040, 0,976, 0,244, -0,183, 0,000, -2,252, 5,883, 15,656, 24,867, 138,508, -94,192, 36,10,,,,,,,, 0, 0,00, 0,00, 0,00, 0,98901, -0,02646, 0,04819, 0,13699,
 11:29:02.331,COM3, 2000-0-0 0:7:14.790, -0,100, -0,042, 0,990, -0,183, 0,183, 0,000, -2,252, 5,883, 15,656, 24,900, 138,475, -94,208, 36,23,,,,,,,, 0, 0,00, 0,00, 0,00, 0,98901, -0,02646, 0,04816, 0,13699,
 11:29:02.341,COM3, 2000-0-0 0:7:14.800, -0,101, -0,040, 0,982, 0,061, -0,122, -0,061, -2,258, 5,883, 15,656, 24,933, 138,458, -94,225, 36,10,,,,,,,, 0, 0,00, 0,00, 0,00, 0,98898, -0,02646, 0,04816, 0,13699,
 11:29:02.351,COM3, 2000-0-0 0:7:14.810, -0,103, -0,044, 0,991, -0,061, 0,061, 0,244, -2,258, 5,883, 15,656, 24,950, 138,508, -94,267, 36,10,,,,,,,, 0, 0,00, 0,00, 0,00, 0,98898, -0,02646, 0,04816, 0,13699,
 11:29:02.361,COM3, 2000-0-0 0:7:14.820, -0,100, -0,039, 0,982, 0,244, -0,122, -0,061, -2,258, 5,883, 15,656, 24,908, 138,550, -94,292, 36,23,,,,,,,, 0, 0,00, 0,00, 0,00, 0,98898, -0,02649, 0,04816, 0,13699,
 11:29:02.370,COM3, 2000-0-0 0:7:14.830, -0,103, -0,041, 0,995, -0,061, 0,305, 0,061, -2,258, 5,883, 15,656, 24,833, 138,550, -94,283, 36,23,,,,,,,, 0, 0,00, 0,00, 0,00, 0,98898, -0,02646, 0,04816, 0,13699,
 11:29:02.381,COM3, 2000-0-0 0:7:14.840, -0,101, -0,040, 0,982, 0,183, -0,183, -0,122, -2,258, 5,883, 15,656, 24,800, 138,525, -94,283, 35,97,,,,,,,, 0, 0,00, 0,00, 0,00, 0,98898, -0,02649, 0,04816, 0,13699,
 11:29:02.391,COM3, 2000-0-0 0:7:14.850, -0,100, -0,043, 0,991, 0,061, 0,366, 0,122, -2,258, 5,883, 15,656, 24,792, 138,508, -94,325, 36,23,,,,,,,, 0, 0,00, 0,00, 0,00, 0,98898, -0,02649, 0,04816, 0,13699,
 11:29:02.401,COM3, 2000-0-0 0:7:14.860, -0,103, -0,039, 0,979, 0,183, -0,244, 0,122, -2,258, 5,883, 15,661, 24,767, 138,500, -94,342, 36,10,,,,,,,, 0, 0,00, 0,00, 0,00, 0,98898, -0,02649, 0,04816, 0,13702,
 11:29:02.411,COM3, 2000-0-0 0:7:14.870, -0,099, -0,041, 0,988, 0,000, 0,244, 0,000, -2,258, 5,883, 15,661, 24,800, 138,533, -94,108, 36,16,,,,,,,, 0, 0,00, 0,00, 0,00, 0,98898, -0,02649, 0,04816, 0,13702,
 11:29:02.421,COM3, 2000-0-0 0:7:14.880, -0,108, -0,039, 0,982, 0,000, 0,000, 0,000, -2,258, 5,883, 15,661, 24,875, 138,558, -93,767, 36,10,,,,,,,, 0, 0,00, 0,00, 0,00, 0,98898, -0,02649, 0,04816, 0,13702,
 11:29:02.429,COM3, 2000-0-0 0:7:14.890, -0,099, -0,043, 0,996, 0,000, 0,000, 0,000, -2,258, 5,883, 15,661, 24,967, 138,592, -93,650, 36,16,,,,,,,, 0, 0,00, 0,00, 0,00, 0,98898, -0,02649, 0,04816, 0,13702,
 11:29:02.439,COM3, 2000-0-0 0:7:14.900, -0,106, -0,040, 0,980, 0,000, 0,000, 0,000, -2,258, 5,883, 15,661, 25,117, 138,592, -93,592, 36,04,,,,,,,, 0, 0,00, 0,00, 0,00, 0,98898, -0,02649, 0,04816, 0,13702,
 11:29:02.450,COM3, 2000-0-0 0:7:14.910, -0,096, -0,044, 0,992, 0,000, 0,000, 0,000, -2,258, 5,883, 15,661, 25,333, 138,550, -93,417, 36,23,,,,,,,, 0, 0,00, 0,00, 0,00, 0,98898, -0,02649, 0,04816, 0,13702,
 11:29:02.459,COM3, 2000-0-0 0:7:14.920, -0,105, -0,038, 0,979, 0,000, 0,000, 0,000, -2,258, 5,883, 15,661, 25,617, 138,492, -93,150, 36,04,,,,,,,, 0, 0,00, 0,00, 0,00, 0,98898, -0,02652, 0,04816, 0,13702,
 11:29:02.470,COM3, 2000-0-0 0:7:14.930, -0,097, -0,043, 0,994, 0,000, 0,000, 0,000, -2,263, 5,883, 15,661, 25,825, 138,433, -92,908, 36,10,,,,,,,, 0, 0,00, 0,00, 0,00, 0,98898, -0,02652, 0,04816, 0,13702,
 11:29:02.480,COM3, 2000-0-0 0:7:14.940, -0,107, -0,037, 0,978, 0,000, 0,000, 0,000, -2,263, 5,883, 15,661, 25,958, 138,400, -92,733, 36,16,,,,,,,, 0, 0,00, 0,00, 0,00, 0,98898, -0,02652, 0,04816, 0,13702,
 11:29:02.490,COM3, 2000-0-0 0:7:14.950, -0,097, -0,042, 0,997, 0,000, 0,000, 0,000, -2,263, 5,883, 15,661, 26,067, 138,383, -92,558, 36,10,,,,,,,, 0, 0,00, 0,00, 0,00, 0,98898, -0,02652, 0,04816, 0,13702,
 11:29:02.500,COM3, 2000-0-0 0:7:14.960, -0,106, -0,038, 0,974, 0,000, 0,000, 0,000, -2,263, 5,883, 15,661, 26,150, 138,383, -92,375, 36,23,,,,,,,, 0, 0,00, 0,00, 0,00, 0,98898, -0,02652, 0,04816, 0,13702,
 11:29:02.510,COM3, 2000-0-0 0:7:14.970, -0,099, -0,043, 1,002, 0,000, 0,000, 0,000, -2,263, 5,883, 15,661, 26,200, 138,358, -92,300, 36,10,,,,,,,, 0, 0,00, 0,00, 0,00, 0,98898, -0,02655, 0,04816, 0,13702,
 11:29:02.520,COM3, 2000-0-0 0:7:14.980, -0,105, -0,042, 0,973, 0,000, 0,000, 0,000, -2,263, 5,883, 15,661, 26,275, 138,317, -92,242, 36,23,,,,,,,, 0, 0,00, 0,00, 0,00, 0,98898, -0,02655, 0,04816, 0,13702,
 11:29:02.530,COM3, 2000-0-0 0:7:14.990, -0,100, -0,040, 1,000, 0,000, 0,000, 0,000, -2,263, 5,883, 15,661, 26,325, 138,275, -92,200, 36,04,,,,,,,, 0, 0,00, 0,00, 0,00, 0,98898, -0,02655, 0,04816, 0,13702,
 11:29:02.539,COM3, 2000-0-0 0:7:15.000, -0,105, -0,039, 0,971, 0,000, 0,000, 0,000, -2,269, 5,883, 15,661, 26,358, 138,275, -92,133, 36,04,,,,,,,, 0, 0,00, 0,00, 0,00, 0,98898, -0,02655, 0,04813, 0,13702,
 11:29:02.549,COM3, 2000-0-0 0:7:15.010, -0,096, -0,043, 0,997, 0,000, 0,000, 0,000, -2,269, 5,883, 15,661, 26,367, 138,267, -92,050, 36,04,,,,,,,, 0, 0,00, 0,00, 0,00, 0,98898, -0,02655, 0,04813, 0,13702,
 11:29:02.560,COM3, 2000-0-0 0:7:15.020, -0,107, -0,040, 0,978, 0,000, 0,000, 0,000, -2,269, 5,883, 15,661, 26,342, 138,258, -91,942, 36,23,,,,,,,, 0, 0,00, 0,00, 0,00, 0,98898, -0,02658, 0,04813, 0,13702,
 11:29:02.569,COM3, 2000-0-0 0:7:15.030, -0,097, -0,043, 1,000, 0,000, 0,000, 0,000, -2,269, 5,883, 15,656, 26,325, 138,258, -91,900, 35,97,,,,,,,, 0, 0,00, 0,00, 0,00, 0,98898, -0,02658, 0,04813, 0,13702,
 11:29:02.578,COM3, 2000-0-0 0:7:15.040, -0,110, -0,039, 0,973, 0,000, 0,000, 0,000, -2,269, 5,883, 15,656, 26,308, 138,250, -91,917, 36,10,,,,,,,, 0, 0,00, 0,00, 0,00, 0,98898, -0,02658, 0,04813, 0,13702,
 11:29:02.588,COM3, 2000-0-0 0:7:15.050, -0,095, -0,040, 1,000, 0,000, 0,000, 0,000, -2,269, 5,883, 15,656, 26,325, 138,267, -91,967, 36,04,,,,,,,, 0, 0,00, 0,00, 0,00, 0,98898, -0,02658, 0,04813, 0,13702,
 11:29:02.599,COM3, 2000-0-0 0:7:15.060, -0,111, -0,039, 0,976, 0,000, 0,000, 0,000, -2,269, 5,883, 15,656, 26,367, 138,275, -92,042, 36,10,,,,,,,, 0, 0,00, 0,00, 0,00, 0,98898, -0,02658, 0,04813, 0,13702,
 11:29:02.609,COM3, 2000-0-0 0:7:15.070, -0,092, -0,042, 0,998, 0,000, 0,000, 0,000, -2,269, 5,883, 15,656, 26,417, 138,267, -92,075, 36,04,,,,,,,, 0, 0,00, 0,00, 0,00, 0,98898, -0,02661, 0,04813, 0,13702,
 11:29:02.618,COM3, 2000-0-0 0:7:15.080, -0,113, -0,039, 0,975, 0,000, 0,000, 0,000, -2,269, 5,883, 15,656, 26,408, 138,208, -92,050, 36,16,,,,,,,, 0, 0,00, 0,00, 0,00, 0,98898, -0,02661, 0,04813, 0,13702,
 11:29:02.629,COM3, 2000-0-0 0:7:15.090, -0,091, -0,039, 0,999, 0,000, 0,000, 0,000, -2,269, 5,883, 15,656, 26,350, 138,175, -92,050, 36,10,,,,,,,, 0, 0,00, 0,00, 0,00, 0,98898, -0,02661, 0,04813, 0,13702,
 11:29:02.639,COM3, 2000-0-0 0:7:15.100, -0,109, -0,042, 0,979, 0,000, 0,000, 0,000, -2,274, 5,883, 15,656, 26,333, 138,150, -92,133, 36,23,,,,,,,, 0, 0,00, 0,00, 0,00, 0,98898, -0,02661, 0,04813, 0,13702,
 11:29:02.649,COM3, 2000-0-0 0:7:15.110, -0,093, -0,040, 1,003, 0,000, 0,000, 0,000, -2,274, 5,883, 15,656, 26,333, 138,100, -92,208, 36,16,,,,,,,, 0, 0,00, 0,00, 0,00, 0,98898, -0,02661, 0,04813, 0,13702,
 11:29:02.660,COM3, 2000-0-0 0:7:15.120, -0,111, -0,043, 0,968, 0,000, 0,000, 0,000, -2,274, 5,883, 15,656, 26,325, 138,058, -92,258, 36,10,,,,,,,, 0, 0,00, 0,00, 0,00, 0,98898, -0,02661, 0,04813, 0,13702,
 11:29:02.670,COM3, 2000-0-0 0:7:15.130, -0,091, -0,042, 1,000, 0,000, 0,000, 0,000, -2,274, 5,883, 15,656, 26,325, 138,042, -92,258, 36,23,,,,,,,, 0, 0,00, 0,00, 0,00, 0,98898, -0,02661, 0,04813, 0,13702,
 11:29:02.680,COM3, 2000-0-0 0:7:15.140, -0,111, -0,041, 0,973, 0,000, 0,000, 0,000, -2,274, 5,883, 15,661, 26,292, 138,033, -92,192, 36,10,,,,,,,, 0, 0,00, 0,00, 0,00, 0,98898, -0,02661, 0,04813, 0,13702,
 11:29:02.688,COM3, 2000-0-0 0:7:15.150, -0,092, -0,039, 1,003, 0,000, 0,000, 0,000, -2,274, 5,883, 15,661, 26,250, 138,000, -92,150, 36,16,,,,,,,, 0, 0,00, 0,00, 0,00, 0,98898, -0,02664, 0,04813, 0,13702,
 11:29:02.698,COM3, 2000-0-0 0:7:15.160, -0,109, -0,039, 0,969, 0,000, 0,000, 0,000, -2,274, 5,883, 15,661, 26,233, 137,958, -92,217, 36,16,,,,,,,, 0, 0,00, 0,00, 0,00, 0,98898, -0,02664, 0,04813, 0,13702,
 11:29:02.708,COM3, 2000-0-0 0:7:15.170, -0,094, -0,039, 0,998, 0,000, 0,000, 0,000, -2,274, 5,883, 15,661, 26,333, 137,958, -92,358, 36,04,,,,,,,, 0, 0,00, 0,00, 0,00, 0,98898, -0,02664, 0,04813, 0,13702,
 11:29:02.718,COM3, 2000-0-0 0:7:15.180, -0,110, -0,040, 0,969, 0,000, 0,000, 0,000, -2,274, 5,883, 15,661, 26,475, 137,975, -92,492, 36,10,,,,,,,, 0, 0,00, 0,00, 0,00, 0,98898, -0,02664, 0,04813, 0,13702,
 11:29:02.728,COM3, 2000-0-0 0:7:15.190, -0,091, -0,040, 0,999, 0,000, 0,000, 0,000, -2,274, 5,883, 15,661, 26,558, 138,025, -92,567, 36,23,,,,,,,, 0, 0,00, 0,00, 0,00, 0,98898, -0,02664, 0,04813, 0,13702,
 11:29:02.738,COM3, 2000-0-0 0:7:15.200, -0,109, -0,042, 0,974, 0,000, 0,000, 0,000, -2,274, 5,883, 15,661, 26,583, 138,092, -92,608, 36,04,,,,,,,, 0, 0,00, 0,00, 0,00, 0,98898, -0,02664, 0,04813, 0,13702,
 11:29:02.748,COM3, 2000-0-0 0:7:15.210, -0,092, -0,042, 0,997, 0,000, 0,000, 0,000, -2,274, 5,883, 15,656, 26,583, 138,150, -92,592, 35,97,,,,,,,, 0, 0,00, 0,00, 0,00, 0,98898, -0,02664, 0,04813, 0,13702,
 11:29:02.758,COM3, 2000-0-0 0:7:15.220, -0,112, -0,041, 0,973, 0,000, 0,000, 0,000, -2,280, 5,883, 15,656, 26,608, 138,167, -92,550, 36,10,,,,,,,, 0, 0,00, 0,00, 0,00, 0,98898, -0,02664, 0,04813, 0,13702,
 11:29:02.768,COM3, 2000-0-0 0:7:15.230, -0,093, -0,040, 0,996, 0,000, 0,000, 0,000, -2,280, 5,883, 15,656, 26,567, 138,150, -92,508, 36,04,,,,,,,, 0, 0,00, 0,00, 0,00, 0,98898, -0,02667, 0,04813, 0,13702,
 11:29:02.778,COM3, 2000-0-0 0:7:15.240, -0,114, -0,042, 0,979, 0,000, 0,000, 0,000, -2,280, 5,883, 15,656, 26,450, 138,158, -92,467, 36,10,,,,,,,, 0, 0,00, 0,00, 0,00, 0,98898, -0,02667, 0,04813, 0,13702,
 11:29:02.789,COM3, 2000-0-0 0:7:15.250, -0,091, -0,040, 0,999, 0,000, 0,000, 0,000, -2,280, 5,883, 15,656, 26,367, 138,158, -92,467, 36,04,,,,,,,, 0, 0,00, 0,00, 0,00, 0,98898, -0,02667, 0,04813, 0,13702,
 11:29:02.799,COM3, 2000-0-0 0:7:15.260, -0,115, -0,042, 0,977, 0,000, 0,000, 0,000, -2,280, 5,883, 15,656, 26,333, 138,150, -92,450, 36,04,,,,,,,, 0, 0,00, 0,00, 0,00, 0,98898, -0,02667, 0,04813, 0,13702,
 11:29:02.808,COM3, 2000-0-0 0:7:15.270, -0,089, -0,041, 0,996, 0,000, 0,000, 0,000, -2,280, 5,883, 15,656, 26,275, 138,125, -92,442, 36,29,,,,,,,, 0, 0,00, 0,00, 0,00, 0,98898, -0,02667, 0,04813, 0,13702,
 11:29:02.818,COM3, 2000-0-0 0:7:15.280, -0,111, -0,041, 0,976, 0,000, 0,000, 0,000, -2,280, 5,883, 15,656, 26,250, 138,100, -92,425, 36,10,,,,,,,, 0, 0,00, 0,00, 0,00, 0,98898, -0,02667, 0,04813, 0,13702,
 11:29:02.828,COM3, 2000-0-0 0:7:15.290, -0,093, -0,039, 0,994, 0,000, 0,000, 0,000, -2,280, 5,883, 15,656, 26,250, 138,092, -92,392, 36,16,,,,,,,, 0, 0,00, 0,00, 0,00, 0,98898, -0,02667, 0,04813, 0,13702,
 11:29:02.839,COM3, 2000-0-0 0:7:15.300, -0,110, -0,043, 0,981, 0,000, 0,000, 0,000, -2,280, 5,883, 15,656, 26,233, 138,092, -92,333, 36,10,,,,,,,, 0, 0,00, 0,00, 0,00, 0,98898, -0,02667, 0,04813, 0,13702,
 11:29:02.849,COM3, 2000-0-0 0:7:15.310, -0,094, -0,037, 0,992, 0,000, 0,000, 0,000, -2,280, 5,883, 15,656, 26,217, 138,058, -92,242, 36,04,,,,,,,, 0, 0,00, 0,00, 0,00, 0,98898, -0,02670, 0,04813, 0,13702,
 11:29:02.859,COM3, 2000-0-0 0:7:15.320, -0,106, -0,041, 0,972, 0,000, 0,000, 0,000, -2,280, 5,883, 15,656, 26,208, 138,033, -92,225, 36,10,,,,,,,, 0, 0,00, 0,00, 0,00, 0,98898, -0,02670, 0,04813, 0,13702,
 11:29:02.868,COM3, 2000-0-0 0:7:15.330, -0,094, -0,037, 0,997, 0,000, 0,000, 0,000, -2,280, 5,883, 15,656, 26,200, 138,025, -92,267, 36,16,,,,,,,, 0, 0,00, 0,00, 0,00, 0,98898, -0,02670, 0,04813, 0,13702,
 11:29:02.878,COM3, 2000-0-0 0:7:15.340, -0,108, -0,042, 0,981, 0,000, 0,000, 0,000, -2,280, 5,883, 15,656, 26,192, 138,017, -92,300, 36,10,,,,,,,, 0, 0,00, 0,00, 0,00, 0,98898, -0,02670, 0,04813, 0,13702,
 11:29:02.888,COM3, 2000-0-0 0:7:15.350, -0,098, -0,039, 0,993, 0,000, 0,000, 0,000, -2,285, 5,883, 15,656, 26,200, 137,983, -92,292, 36,16,,,,,,,, 0, 0,00, 0,00, 0,00, 0,98898, -0,02670, 0,04813, 0,13702,
 11:29:02.898,COM3, 2000-0-0 0:7:15.360, -0,107, -0,042, 0,978, 0,000, 0,000, 0,000, -2,285, 5,883, 15,656, 26,183, 137,933, -92,283, 36,10,,,,,,,, 0, 0,00, 0,00, 0,00, 0,98898, -0,02670, 0,04813, 0,13702,
 11:29:02.908,COM3, 2000-0-0 0:7:15.370, -0,100, -0,041, 0,991, 0,000, 0,000, 0,000, -2,285, 5,883, 15,656, 26,150, 137,883, -92,283, 35,97,,,,,,,, 0, 0,00, 0,00, 0,00, 0,98898, -0,02670, 0,04813, 0,13702,
 11:29:02.918,COM3, 2000-0-0 0:7:15.380, -0,107, -0,043, 0,984, 0,000, 0,000, 0,000, -2,285, 5,883, 15,656, 26,133, 137,875, -92,292, 36,10,,,,,,,, 0, 0,00, 0,00, 0,00, 0,98898, -0,02670, 0,04813, 0,13702,
 11:29:02.928,COM3, 2000-0-0 0:7:15.390, -0,099, -0,039, 0,989, 0,000, 0,000, 0,000, -2,285, 5,883, 15,656, 26,150, 137,917, -92,342, 36,23,,,,,,,, 0, 0,00, 0,00, 0,00, 0,98898, -0,02673, 0,04813, 0,13702,
 11:29:02.938,COM3, 2000-0-0 0:7:15.400, -0,104, -0,042, 0,989, 0,000, 0,000, 0,000, -2,285, 5,883, 15,656, 26,175, 137,992, -92,417, 36,23,,,,,,,, 0, 0,00, 0,00, 0,00, 0,98898, -0,02673, 0,04813, 0,13702,
 11:29:02.947,COM3, 2000-0-0 0:7:15.410, -0,097, -0,038, 0,982, 0,000, 0,000, 0,000, -2,285, 5,883, 15,661, 26,150, 138,042, -92,483, 36,04,,,,,,,, 0, 0,00, 0,00, 0,00, 0,98898, -0,02673, 0,04813, 0,13702,
 11:29:02.957,COM3, 2000-0-0 0:7:15.420, -0,105, -0,041, 0,989, 0,000, 0,000, 0,000, -2,285, 5,883, 15,661, 26,108, 138,067, -92,442, 36,23,,,,,,,, 0, 0,00, 0,00, 0,00, 0,98898, -0,02673, 0,04813, 0,13702,
 11:29:02.968,COM3, 2000-0-0 0:7:15.430, -0,098, -0,041, 0,984, 0,000, 0,000, 0,000, -2,285, 5,883, 15,661, 26,092, 138,100, -92,325, 36,04,,,,,,,, 0, 0,00, 0,00, 0,00, 0,98898, -0,02673, 0,04813, 0,13702,
 11:29:02.978,COM3, 2000-0-0 0:7:15.440, -0,104, -0,041, 0,994, 0,000, 0,000, 0,000, -2,285, 5,883, 15,661, 26,083, 138,083, -92,225, 36,10,,,,,,,, 0, 0,00, 0,00, 0,00, 0,98898, -0,02673, 0,04813, 0,13702,
 11:29:02.989,COM3, 2000-0-0 0:7:15.450, -0,100, -0,041, 0,978, 0,000, 0,000, 0,000, -2,285, 5,883, 15,661, 26,092, 138,058, -92,192, 36,16,,,,,,,, 0, 0,00, 0,00, 0,00, 0,98898, -0,02673, 0,04813, 0,13702,
 11:29:02.999,COM3, 2000-0-0 0:7:15.460, -0,101, -0,039, 0,996, 0,000, 0,000, 0,000, -2,291, 5,883, 15,661, 26,117, 138,058, -92,200, 36,16,,,,,,,, 0, 0,00, 0,00, 0,00, 0,98898, -0,02676, 0,04813, 0,13702,
 11:29:03.009,COM3, 2000-0-0 0:7:15.470, -0,103, -0,040, 0,979, 0,000, 0,000, 0,000, -2,291, 5,883, 15,661, 26,083, 138,067, -92,175, 36,10,,,,,,,, 0, 0,00, 0,00, 0,00, 0,98898, -0,02676, 0,04813, 0,13702,
 11:29:03.019,COM3, 2000-0-0 0:7:15.480, -0,100, -0,044, 0,998, 0,000, 0,000, 0,000, -2,291, 5,883, 15,656, 26,042, 138,083, -92,183, 36,04,,,,,,,, 0, 0,00, 0,00, 0,00, 0,98898, -0,02676, 0,04813, 0,13702,
 11:29:03.029,COM3, 2000-0-0 0:7:15.490, -0,104, -0,040, 0,980, 0,000, 0,000, 0,000, -2,291, 5,883, 15,661, 26,042, 138,092, -92,225, 36,04,,,,,,,, 0, 0,00, 0,00, 0,00, 0,98898, -0,02676, 0,04813, 0,13702,
 11:29:03.038,COM3, 2000-0-0 0:7:15.500, -0,098, -0,042, 0,990, 0,000, 0,000, 0,000, -2,291, 5,883, 15,661, 26,033, 138,108, -92,225, 36,10,,,,,,,, 0, 0,00, 0,00, 0,00, 0,98898, -0,02676, 0,04813, 0,13702,
 11:29:03.048,COM3, 2000-0-0 0:7:15.510, -0,106, -0,039, 0,979, 0,000, 0,000, 0,000, -2,291, 5,883, 15,656, 26,042, 138,117, -92,158, 36,16,,,,,,,, 0, 0,00, 0,00, 0,00, 0,98898, -0,02676, 0,04813, 0,13702,
 11:29:03.058,COM3, 2000-0-0 0:7:15.520, -0,097, -0,042, 0,988, 0,000, 0,000, 0,000, -2,291, 5,883, 15,661, 26,050, 138,083, -92,117, 36,10,,,,,,,, 0, 0,00, 0,00, 0,00, 0,98898, -0,02676, 0,04813, 0,13702,
 11:29:03.068,COM3, 2000-0-0 0:7:15.530, -0,107, -0,042, 0,981, 0,000, 0,000, 0,000, -2,291, 5,883, 15,656, 26,058, 138,033, -92,117, 36,04,,,,,,,, 0, 0,00, 0,00, 0,00, 0,98898, -0,02676, 0,04813, 0,13702,
 11:29:03.077,COM3, 2000-0-0 0:7:15.540, -0,095, -0,041, 0,994, 0,000, 0,000, 0,000, -2,291, 5,883, 15,661, 26,092, 138,000, -92,125, 36,23,,,,,,,, 0, 0,00, 0,00, 0,00, 0,98898, -0,02679, 0,04813, 0,13702,
 11:29:03.087,COM3, 2000-0-0 0:7:15.550, -0,108, -0,045, 0,972, 0,000, 0,000, 0,000, -2,291, 5,883, 15,656, 26,100, 138,017, -92,092, 36,16,,,,,,,, 0, 0,00, 0,00, 0,00, 0,98898, -0,02679, 0,04813, 0,13702,
 11:29:03.097,COM3, 2000-0-0 0:7:15.560, -0,093, -0,037, 0,997, 0,000, 0,000, 0,000, -2,291, 5,883, 15,661, 26,117, 138,033, -92,008, 36,29,,,,,,,, 0, 0,00, 0,00, 0,00, 0,98898, -0,02679, 0,04813, 0,13702,
 11:29:03.108,COM3, 2000-0-0 0:7:15.570, -0,108, -0,041, 0,975, 0,000, 0,000, 0,000, -2,291, 5,883, 15,656, 26,117, 138,042, -92,008, 36,16,,,,,,,, 0, 0,00, 0,00, 0,00, 0,98898, -0,02679, 0,04813, 0,13702,
 11:29:03.117,COM3, 2000-0-0 0:7:15.580, -0,093, -0,040, 1,001, 0,000, 0,000, 0,000, -2,296, 5,883, 15,656, 26,117, 138,025, -92,058, 36,29,,,,,,,, 0, 0,00, 0,00, 0,00, 0,98898, -0,02679, 0,04810, 0,13702,
 11:29:03.128,COM3, 2000-0-0 0:7:15.590, -0,109, -0,041, 0,975, 0,000, 0,000, 0,000, -2,296, 5,883, 15,656, 26,133, 138,008, -92,067, 36,10,,,,,,,, 0, 0,00, 0,00, 0,00, 0,98898, -0,02679, 0,04810, 0,13702,
 11:29:03.137,COM3, 2000-0-0 0:7:15.600, -0,093, -0,039, 1,000, 0,000, 0,000, 0,000, -2,296, 5,883, 15,656, 26,125, 138,008, -92,058, 36,23,,,,,,,, 0, 0,00, 0,00, 0,00, 0,98898, -0,02679, 0,04810, 0,13702,
 11:29:03.147,COM3, 2000-0-0 0:7:15.610, -0,108, -0,042, 0,969, 0,000, 0,000, 0,000, -2,296, 5,883, 15,656, 26,125, 138,042, -92,108, 36,23,,,,,,,, 0, 0,00, 0,00, 0,00, 0,98898, -0,02679, 0,04810, 0,13702,
 11:29:03.158,COM3, 2000-0-0 0:7:15.620, -0,090, -0,039, 1,006, 0,000, 0,000, 0,000, -2,296, 5,883, 15,661, 26,108, 138,017, -92,150, 36,10,,,,,,,, 0, 0,00, 0,00, 0,00, 0,98898, -0,02682, 0,04810, 0,13702,
 11:29:03.168,COM3, 2000-0-0 0:7:15.630, -0,110, -0,041, 0,974, 0,000, 0,000, 0,000, -2,296, 5,883, 15,656, 26,083, 138,000, -92,150, 36,04,,,,,,,, 0, 0,00, 0,00, 0,00, 0,98898, -0,02682, 0,04810, 0,13702,
 11:29:03.177,COM3, 2000-0-0 0:7:15.640, -0,094, -0,039, 1,000, 0,000, 0,000, 0,000, -2,296, 5,883, 15,661, 26,058, 138,017, -92,117, 36,10,,,,,,,, 0, 0,00, 0,00, 0,00, 0,98898, -0,02682, 0,04810, 0,13702,
 11:29:03.187,COM3, 2000-0-0 0:7:15.650, -0,110, -0,041, 0,973, -0,122, 0,000, 0,000, -2,296, 5,883, 15,656, 26,050, 138,042, -92,050, 36,16,,,,,,,, 0, 0,00, 0,00, 0,00, 0,98898, -0,02682, 0,04810, 0,13702,
 11:29:03.197,COM3, 2000-0-0 0:7:15.660, -0,093, -0,039, 1,001, 0,122, 0,000, 0,000, -2,296, 5,883, 15,656, 26,050, 138,050, -92,033, 36,10,,,,,,,, 0, 0,00, 0,00, 0,00, 0,98898, -0,02686, 0,04810, 0,13702,
 11:29:03.207,COM3, 2000-0-0 0:7:15.670, -0,110, -0,043, 0,973, -0,061, 0,061, 0,000, -2,296, 5,883, 15,656, 26,050, 138,042, -92,125, 36,16,,,,,,,, 0, 0,00, 0,00, 0,00, 0,98898, -0,02682, 0,04810, 0,13702,
 11:29:03.217,COM3, 2000-0-0 0:7:15.680, -0,094, -0,040, 1,000, 0,122, -0,061, 0,000, -2,296, 5,883, 15,656, 26,083, 138,075, -92,167, 36,04,,,,,,,, 0, 0,00, 0,00, 0,00, 0,98898, -0,02682, 0,04813, 0,13702,
 11:29:03.226,COM3, 2000-0-0 0:7:15.690, -0,111, -0,042, 0,979, -0,061, 0,061, 0,000, -2,296, 5,883, 15,656, 26,150, 138,075, -92,150, 36,16,,,,,,,, 0, 0,00, 0,00, 0,00, 0,98898, -0,02682, 0,04810, 0,13702,
 11:29:03.236,COM3, 2000-0-0 0:7:15.700, -0,092, -0,041, 0,995, 0,122, -0,122, 0,000, -2,296, 5,883, 15,656, 26,192, 138,058, -92,167, 36,10,,,,,,,, 0, 0,00, 0,00, 0,00, 0,98898, -0,02682, 0,04813, 0,13702,
 11:29:03.246,COM3, 2000-0-0 0:7:15.710, -0,112, -0,040, 0,980, -0,122, 0,061, 0,000, -2,296, 5,883, 15,656, 26,208, 138,033, -92,150, 36,04,,,,,,,, 0, 0,00, 0,00, 0,00, 0,98898, -0,02682, 0,04810, 0,13702,
 11:29:03.257,COM3, 2000-0-0 0:7:15.720, -0,091, -0,042, 0,994, 0,000, 0,000, 0,000, -2,296, 5,883, 15,656, 26,158, 138,017, -92,100, 36,10,,,,,,,, 0, 0,00, 0,00, 0,00, 0,98898, -0,02682, 0,04813, 0,13702,
 11:29:03.267,COM3, 2000-0-0 0:7:15.730, -0,109, -0,042, 0,982, 0,000, 0,183, 0,000, -2,296, 5,883, 15,656, 26,142, 138,033, -92,133, 36,16,,,,,,,, 0, 0,00, 0,00, 0,00, 0,98898, -0,02682, 0,04810, 0,13702,
 11:29:03.277,COM3, 2000-0-0 0:7:15.740, -0,088, -0,039, 0,998, 0,183, -0,122, 0,000, -2,296, 5,883, 15,656, 26,158, 138,033, -92,167, 36,16,,,,,,,, 0, 0,00, 0,00, 0,00, 0,98898, -0,02686, 0,04813, 0,13702,
 11:29:03.287,COM3, 2000-0-0 0:7:15.750, -0,112, -0,044, 0,983, -0,183, 0,305, 0,000, -2,296, 5,883, 15,656, 26,183, 138,042, -92,267, 36,04,,,,,,,, 0, 0,00, 0,00, 0,00, 0,98898, -0,02682, 0,04813, 0,13702,
 11:29:03.298,COM3, 2000-0-0 0:7:15.760, -0,093, -0,042, 0,989, 0,000, -0,183, 0,000, -2,296, 5,883, 15,656, 26,208, 138,050, -92,342, 36,29,,,,,,,, 0, 0,00, 0,00, 0,00, 0,98898, -0,02686, 0,04813, 0,13702,
 11:29:03.307,COM3, 2000-0-0 0:7:15.770, -0,108, -0,040, 0,982, -0,183, 0,122, 0,000, -2,302, 5,889, 15,656, 26,192, 138,050, -92,325, 36,10,,,,,,,, 0, 0,00, 0,00, 0,00, 0,98898, -0,02686, 0,04813, 0,13702,
 11:29:03.317,COM3, 2000-0-0 0:7:15.780, -0,096, -0,040, 0,991, 0,122, -0,183, 0,000, -2,302, 5,883, 15,656, 26,142, 138,025, -92,317, 36,10,,,,,,,, 0, 0,00, 0,00, 0,00, 0,98898, -0,02686, 0,04813, 0,13702,
 11:29:03.326,COM3, 2000-0-0 0:7:15.790, -0,107, -0,041, 0,986, -0,061, 0,244, 0,000, -2,302, 5,889, 15,656, 26,117, 138,008, -92,292, 36,04,,,,,,,, 0, 0,00, 0,00, 0,00, 0,98898, -0,02686, 0,04813, 0,13702,
 11:29:03.336,COM3, 2000-0-0 0:7:15.800, -0,100, -0,042, 0,984, 0,122, -0,366, 0,000, -2,302, 5,883, 15,656, 26,067, 138,017, -92,217, 35,97,,,,,,,, 0, 0,00, 0,00, 0,00, 0,98898, -0,02686, 0,04813, 0,13702,
 11:29:03.347,COM3, 2000-0-0 0:7:15.810, -0,104, -0,040, 0,982, -0,061, 0,244, 0,000, -2,302, 5,889, 15,656, 26,025, 138,025, -92,150, 36,16,,,,,,,, 0, 0,00, 0,00, 0,00, 0,98898, -0,02686, 0,04813, 0,13702,
 11:29:03.357,COM3, 2000-0-0 0:7:15.820, -0,100, -0,038, 0,986, 0,122, -0,244, 0,000, -2,302, 5,883, 15,656, 26,042, 138,033, -92,092, 36,10,,,,,,,, 0, 0,00, 0,00, 0,00, 0,98898, -0,02689, 0,04813, 0,13702,
 11:29:03.366,COM3, 2000-0-0 0:7:15.830, -0,101, -0,042, 0,987, -0,122, 0,366, 0,000, -2,302, 5,889, 15,656, 26,025, 138,008, -92,042, 36,23,,,,,,,, 0, 0,00, 0,00, 0,00, 0,98898, -0,02686, 0,04813, 0,13702,
 11:29:03.376,COM3, 2000-0-0 0:7:15.840, -0,104, -0,042, 0,985, 0,244, -0,183, 0,000, -2,302, 5,889, 15,656, 26,033, 137,958, -92,025, 36,10,,,,,,,, 0, 0,00, 0,00, 0,00, 0,98898, -0,02689, 0,04813, 0,13702,
 11:29:03.387,COM3, 2000-0-0 0:7:15.850, -0,102, -0,042, 0,991, -0,305, 0,305, 0,000, -2,302, 5,889, 15,656, 26,058, 137,942, -92,050, 36,04,,,,,,,, 0, 0,00, 0,00, 0,00, 0,98898, -0,02689, 0,04813, 0,13702,
 11:29:03.397,COM3, 2000-0-0 0:7:15.860, -0,105, -0,040, 0,981, 0,244, -0,366, 0,000, -2,302, 5,883, 15,656, 26,083, 137,950, -92,108, 36,16,,,,,,,, 0, 0,00, 0,00, 0,00, 0,98898, -0,02689, 0,04813, 0,13702,
 11:29:03.406,COM3, 2000-0-0 0:7:15.870, -0,099, -0,038, 0,993, -0,122, 0,122, 0,000, -2,302, 5,883, 15,656, 26,133, 137,925, -92,192, 36,10,,,,,,,, 0, 0,00, 0,00, 0,00, 0,98898, -0,02689, 0,04813, 0,13702,
 11:29:03.416,COM3, 2000-0-0 0:7:15.880, -0,104, -0,043, 0,977, 0,183, -0,061, 0,000, -2,302, 5,889, 15,656, 26,150, 137,892, -92,250, 36,23,,,,,,,, 0, 0,00, 0,00, 0,00, 0,98898, -0,02689, 0,04813, 0,13702,
 11:29:03.426,COM3, 2000-0-0 0:7:15.890, -0,099, -0,040, 1,000, -0,183, 0,000, 0,000, -2,302, 5,889, 15,656, 26,142, 137,875, -92,258, 35,97,,,,,,,, 0, 0,00, 0,00, 0,00, 0,98898, -0,02689, 0,04813, 0,13702,
 11:29:03.436,COM3, 2000-0-0 0:7:15.900, -0,105, -0,041, 0,979, 0,183, -0,122, 0,000, -2,302, 5,889, 15,656, 26,167, 137,892, -92,267, 36,16,,,,,,,, 0, 0,00, 0,00, 0,00, 0,98898, -0,02689, 0,04813, 0,13702,
 11:29:03.446,COM3, 2000-0-0 0:7:15.910, -0,098, -0,039, 1,000, -0,061, 0,061, 0,000, -2,302, 5,883, 15,656, 26,183, 137,917, -92,217, 36,10,,,,,,,, 0, 0,00, 0,00, 0,00, 0,98898, -0,02689, 0,04813, 0,13702,
 11:29:03.456,COM3, 2000-0-0 0:7:15.920, -0,107, -0,041, 0,969, 0,061, -0,061, 0,000, -2,302, 5,889, 15,656, 26,317, 137,983, -92,108, 36,16,,,,,,,, 0, 0,00, 0,00, 0,00, 0,98898, -0,02689, 0,04813, 0,13702,
 11:29:03.466,COM3, 2000-0-0 0:7:15.930, -0,095, -0,039, 1,001, -0,122, 0,000, 0,000, -2,307, 5,883, 15,656, 26,617, 138,158, -91,975, 36,10,,,,,,,, 0, 0,00, 0,00, 0,00, 0,98898, -0,02689, 0,04813, 0,13702,
 11:29:03.476,COM3, 2000-0-0 0:7:15.940, -0,111, -0,043, 0,971, 0,061, 0,000, 0,000, -2,307, 5,883, 15,656, 26,850, 138,317, -92,042, 36,04,,,,,,,, 0, 0,00, 0,00, 0,00, 0,98898, -0,02689, 0,04813, 0,13702,
 11:29:03.486,COM3, 2000-0-0 0:7:15.950, -0,095, -0,039, 1,004, 0,000, 0,000, 0,000, -2,307, 5,883, 15,656, 26,950, 138,400, -92,217, 36,16,,,,,,,, 0, 0,00, 0,00, 0,00, 0,98898, -0,02692, 0,04813, 0,13702,
 11:29:03.496,COM3, 2000-0-0 0:7:15.960, -0,111, -0,043, 0,972, -0,061, 0,061, 0,000, -2,307, 5,889, 15,656, 27,008, 138,450, -92,325, 36,16,,,,,,,, 0, 0,00, 0,00, 0,00, 0,98898, -0,02692, 0,04813, 0,13702,
 11:29:03.506,COM3, 2000-0-0 0:7:15.970, -0,092, -0,041, 1,003, 0,061, 0,000, 0,000, -2,307, 5,889, 15,656, 27,008, 138,442, -92,417, 36,29,,,,,,,, 0, 0,00, 0,00, 0,00, 0,98898, -0,02692, 0,04813, 0,13702,
 11:29:03.516,COM3, 2000-0-0 0:7:15.980, -0,111, -0,041, 0,971, 0,000, 0,061, 0,000, -2,307, 5,889, 15,656, 26,950, 138,417, -92,408, 36,23,,,,,,,, 0, 0,00, 0,00, 0,00, 0,98898, -0,02692, 0,04813, 0,13702,
 11:29:03.526,COM3, 2000-0-0 0:7:15.990, -0,093, -0,040, 0,996, 0,061, -0,061, 0,000, -2,307, 5,889, 15,656, 26,908, 138,392, -92,333, 36,10,,,,,,,, 0, 0,00, 0,00, 0,00, 0,98898, -0,02692, 0,04813, 0,13702,
 11:29:03.536,COM3, 2000-0-0 0:7:16.000, -0,109, -0,040, 0,978, -0,061, 0,000, 0,000, -2,307, 5,889, 15,656, 26,850, 138,333, -92,267, 36,16,,,,,,,, 0, 0,00, 0,00, 0,00, 0,98898, -0,02692, 0,04813, 0,13702,
 11:29:03.546,COM3, 2000-0-0 0:7:16.010, -0,093, -0,038, 0,996, 0,000, -0,122, 0,000, -2,307, 5,889, 15,656, 26,758, 138,283, -92,200, 36,10,,,,,,,, 0, 0,00, 0,00, 0,00, 0,98898, -0,02695, 0,04813, 0,13705,
 11:29:03.557,COM3, 2000-0-0 0:7:16.020, -0,112, -0,043, 0,979, 0,000, 0,061, 0,000, -2,307, 5,889, 15,656, 26,683, 138,292, -92,142, 36,04,,,,,,,, 0, 0,00, 0,00, 0,00, 0,98898, -0,02692, 0,04813, 0,13705,
 11:29:03.566,COM3, 2000-0-0 0:7:16.030, -0,091, -0,041, 0,991, 0,061, -0,061, 0,000, -2,307, 5,883, 15,656, 26,642, 138,292, -92,083, 36,04,,,,,,,, 0, 0,00, 0,00, 0,00, 0,98898, -0,02692, 0,04813, 0,13705,
 11:29:03.576,COM3, 2000-0-0 0:7:16.040, -0,111, -0,042, 0,979, -0,061, 0,183, 0,000, -2,307, 5,889, 15,656, 26,625, 138,292, -92,033, 36,16,,,,,,,, 0, 0,00, 0,00, 0,00, 0,98898, -0,02692, 0,04813, 0,13705,
 11:29:03.586,COM3, 2000-0-0 0:7:16.050, -0,091, -0,038, 0,998, 0,183, -0,183, 0,000, -2,307, 5,883, 15,656, 26,600, 138,300, -92,008, 36,16,,,,,,,, 0, 0,00, 0,00, 0,00, 0,98898, -0,02695, 0,04813, 0,13705,
 11:29:03.596,COM3, 2000-0-0 0:7:16.060, -0,111, -0,040, 0,983, 0,000, 0,305, 0,000, -2,307, 5,889, 15,656, 26,575, 138,292, -91,992, 36,29,,,,,,,, 0, 0,00, 0,00, 0,00, 0,98898, -0,02692, 0,04813, 0,13705,
 11:29:03.606,COM3, 2000-0-0 0:7:16.070, -0,097, -0,040, 0,988, 0,061, -0,183, 0,000, -2,307, 5,883, 15,656, 26,542, 138,275, -91,892, 36,10,,,,,,,, 0, 0,00, 0,00, 0,00, 0,98898, -0,02695, 0,04813, 0,13705,
 11:29:03.617,COM3, 2000-0-0 0:7:16.080, -0,108, -0,042, 0,982, -0,061, 0,183, 0,000, -2,307, 5,889, 15,656, 26,550, 138,275, -91,808, 36,29,,,,,,,, 0, 0,00, 0,00, 0,00, 0,98898, -0,02692, 0,04813, 0,13705,
 11:29:03.625,COM3, 2000-0-0 0:7:16.090, -0,094, -0,040, 0,988, 0,000, -0,305, 0,000, -2,307, 5,883, 15,656, 26,550, 138,267, -91,850, 36,04,,,,,,,, 0, 0,00, 0,00, 0,00, 0,98898, -0,02695, 0,04813, 0,13705,
 11:29:03.636,COM3, 2000-0-0 0:7:16.100, -0,107, -0,043, 0,984, -0,183, 0,000, 0,000, -2,307, 5,889, 15,656, 26,575, 138,283, -91,867, 36,16,,,,,,,, 0, 0,00, 0,00, 0,00, 0,98898, -0,02695, 0,04810, 0,13705,
 11:29:03.646,COM3, 2000-0-0 0:7:16.110, -0,098, -0,041, 0,992, 0,183, -0,183, 0,000, -2,307, 5,883, 15,656, 26,575, 138,292, -91,867, 36,16,,,,,,,, 0, 0,00, 0,00, 0,00, 0,98898, -0,02695, 0,04813, 0,13705,
 11:29:03.656,COM3, 2000-0-0 0:7:16.120, -0,104, -0,041, 0,987, -0,061, 0,244, 0,000, -2,307, 5,889, 15,656, 26,542, 138,283, -91,883, 36,16,,,,,,,, 0, 0,00, 0,00, 0,00, 0,98898, -0,02692, 0,04810, 0,13705,
 11:29:03.666,COM3, 2000-0-0 0:7:16.130, -0,104, -0,041, 0,983, 0,244, -0,183, 0,000, -2,307, 5,883, 15,656, 26,492, 138,283, -91,950, 36,04,,,,,,,, 0, 0,00, 0,00, 0,00, 0,98898, -0,02695, 0,04813, 0,13705,
 11:29:03.676,COM3, 2000-0-0 0:7:16.140, -0,098, -0,040, 0,989, -0,183, 0,183, 0,000, -2,307, 5,883, 15,656, 26,450, 138,258, -92,042, 35,97,,,,,,,, 0, 0,00, 0,00, 0,00, 0,98898, -0,02695, 0,04813, 0,13705,
 11:29:03.686,COM3, 2000-0-0 0:7:16.150, -0,104, -0,041, 0,981, 0,183, -0,122, 0,000, -2,307, 5,889, 15,656, 26,400, 138,183, -92,058, 36,10,,,,,,,, 0, 0,00, 0,00, 0,00, 0,98898, -0,02695, 0,04813, 0,13705,
 11:29:03.696,COM3, 2000-0-0 0:7:16.160, -0,096, -0,036, 0,994, -0,244, 0,122, 0,000, -2,313, 5,889, 15,656, 26,367, 138,100, -92,092, 35,97,,,,,,,, 0, 0,00, 0,00, 0,00, 0,98898, -0,02695, 0,04813, 0,13705,
 11:29:03.706,COM3, 2000-0-0 0:7:16.170, -0,106, -0,042, 0,982, 0,244, -0,244, 0,000, -2,307, 5,889, 15,656, 26,400, 138,058, -92,083, 36,23,,,,,,,, 0, 0,00, 0,00, 0,00, 0,98898, -0,02695, 0,04813, 0,13705,
 11:29:03.715,COM3, 2000-0-0 0:7:16.180, -0,097, -0,041, 0,993, -0,183, 0,122, 0,000, -2,307, 5,889, 15,656, 26,433, 138,083, -92,092, 36,10,,,,,,,, 0, 0,00, 0,00, 0,00, 0,98898, -0,02695, 0,04813, 0,13705,
 11:29:03.725,COM3, 2000-0-0 0:7:16.190, -0,108, -0,042, 0,976, 0,061, -0,183, 0,000, -2,307, 5,889, 15,656, 26,442, 138,100, -92,142, 36,10,,,,,,,, 0, 0,00, 0,00, 0,00, 0,98898, -0,02695, 0,04813, 0,13705,
 11:29:03.735,COM3, 2000-0-0 0:7:16.200, -0,095, -0,037, 0,998, -0,183, 0,122, 0,000, -2,313, 5,889, 15,656, 26,458, 138,108, -92,192, 36,10,,,,,,,, 0, 0,00, 0,00, 0,00, 0,98898, -0,02695, 0,04813, 0,13705,
 11:29:03.746,COM3, 2000-0-0 0:7:16.210, -0,109, -0,042, 0,973, 0,061, 0,000, 0,000, -2,313, 5,889, 15,656, 26,492, 138,142, -92,267, 36,29,,,,,,,, 0, 0,00, 0,00, 0,00, 0,98898, -0,02695, 0,04813, 0,13705,
 11:29:03.755,COM3, 2000-0-0 0:7:16.220, -0,095, -0,038, 1,007, -0,061, 0,000, 0,000, -2,313, 5,889, 15,656, 26,492, 138,142, -92,283, 36,29,,,,,,,, 0, 0,00, 0,00, 0,00, 0,98898, -0,02695, 0,04813, 0,13705,
 11:29:03.766,COM3, 2000-0-0 0:7:16.230, -0,108, -0,044, 0,972, 0,000, -0,061, 0,000, -2,313, 5,889, 15,656, 26,475, 138,125, -92,200, 36,10,,,,,,,, 0, 0,00, 0,00, 0,00, 0,98898, -0,02695, 0,04813, 0,13705,
 11:29:03.775,COM3, 2000-0-0 0:7:16.240, -0,095, -0,038, 1,002, -0,061, 0,122, 0,000, -2,313, 5,889, 15,656, 26,575, 138,167, -91,967, 36,23,,,,,,,, 0, 0,00, 0,00, 0,00, 0,98898, -0,02695, 0,04813, 0,13705,
 11:29:03.785,COM3, 2000-0-0 0:7:16.250, -0,111, -0,039, 0,972, 0,000, 0,000, 0,000, -2,313, 5,889, 15,656, 26,675, 138,225, -91,567, 36,10,,,,,,,, 0, 0,00, 0,00, 0,00, 0,98898, -0,02695, 0,04813, 0,13705,
 11:29:03.795,COM3, 2000-0-0 0:7:16.260, -0,095, -0,038, 1,004, 0,061, 0,000, 0,000, -2,313, 5,889, 15,656, 26,742, 138,300, -91,367, 36,10,,,,,,,, 0, 0,00, 0,00, 0,00, 0,98898, -0,02698, 0,04813, 0,13705,
 11:29:03.804,COM3, 2000-0-0 0:7:16.270, -0,110, -0,043, 0,975, 0,000, 0,061, 0,000, -2,313, 5,889, 15,656, 26,717, 138,317, -91,383, 36,16,,,,,,,, 0, 0,00, 0,00, 0,00, 0,98898, -0,02695, 0,04813, 0,13705,
 11:29:03.814,COM3, 2000-0-0 0:7:16.280, -0,092, -0,039, 1,000, 0,183, 0,000, 0,000, -2,313, 5,889, 15,656, 26,650, 138,250, -91,392, 36,29,,,,,,,, 0, 0,00, 0,00, 0,00, 0,98898, -0,02698, 0,04813, 0,13705,
 11:29:03.825,COM3, 2000-0-0 0:7:16.290, -0,109, -0,042, 0,971, -0,061, 0,000, 0,000, -2,313, 5,889, 15,656, 26,625, 138,200, -91,417, 36,04,,,,,,,, 0, 0,00, 0,00, 0,00, 0,98898, -0,02695, 0,04813, 0,13705,
 11:29:03.835,COM3, 2000-0-0 0:7:16.300, -0,093, -0,039, 0,995, 0,244, -0,061, 0,000, -2,307, 5,883, 15,656, 26,617, 138,208, -91,517, 36,16,,,,,,,, 0, 0,00, 0,00, 0,00, 0,98898, -0,02698, 0,04813, 0,13705,
 11:29:03.845,COM3, 2000-0-0 0:7:16.310, -0,110, -0,043, 0,982, -0,122, 0,000, 0,000, -2,313, 5,883, 15,656, 26,575, 138,242, -91,675, 36,16,,,,,,,, 0, 0,00, 0,00, 0,00, 0,98898, -0,02695, 0,04813, 0,13705,
 11:29:03.855,COM3, 2000-0-0 0:7:16.320, -0,094, -0,041, 0,996, 0,183, -0,183, 0,000, -2,307, 5,883, 15,656, 26,567, 138,250, -91,775, 36,16,,,,,,,, 0, 0,00, 0,00, 0,00, 0,98898, -0,02695, 0,04813, 0,13705,
 11:29:03.865,COM3, 2000-0-0 0:7:16.330, -0,107, -0,043, 0,982, -0,183, 0,122, 0,000, -2,313, 5,889, 15,656, 26,583, 138,233, -91,842, 36,16,,,,,,,, 0, 0,00, 0,00, 0,00, 0,98898, -0,02695, 0,04810, 0,13705,
 11:29:03.875,COM3, 2000-0-0 0:7:16.340, -0,095, -0,042, 0,986, 0,244, -0,183, 0,000, -2,313, 5,883, 15,656, 26,575, 138,208, -91,925, 36,04,,,,,,,, 0, 0,00, 0,00, 0,00, 0,98898, -0,02695, 0,04813, 0,13705,
 11:29:03.885,COM3, 2000-0-0 0:7:16.350, -0,110, -0,039, 0,988, -0,122, 0,183, 0,000, -2,313, 5,889, 15,656, 26,558, 138,192, -91,967, 36,16,,,,,,,, 0, 0,00, 0,00, 0,00, 0,98898, -0,02695, 0,04810, 0,13705,
 11:29:03.895,COM3, 2000-0-0 0:7:16.360, -0,094, -0,039, 0,982, 0,183, -0,183, 0,000, -2,313, 5,883, 15,656, 26,550, 138,183, -91,975, 36,16,,,,,,,, 0, 0,00, 0,00, 0,00, 0,98898, -0,02695, 0,04813, 0,13705,
 11:29:03.905,COM3, 2000-0-0 0:7:16.370, -0,108, -0,037, 0,993, -0,244, 0,305, 0,000, -2,313, 5,889, 15,656, 26,558, 138,183, -91,992, 36,04,,,,,,,, 0, 0,00, 0,00, 0,00, 0,98898, -0,02695, 0,04813, 0,13705,
 11:29:03.914,COM3, 2000-0-0 0:7:16.380, -0,097, -0,040, 0,984, 0,305, -0,061, 0,000, -2,313, 5,889, 15,656, 26,575, 138,183, -92,025, 36,16,,,,,,,, 0, 0,00, 0,00, 0,00, 0,98898, -0,02698, 0,04813, 0,13705,
 11:29:03.924,COM3, 2000-0-0 0:7:16.390, -0,103, -0,040, 0,994, -0,122, 0,183, 0,000, -2,313, 5,889, 15,656, 26,608, 138,217, -92,075, 36,23,,,,,,,, 0, 0,00, 0,00, 0,00, 0,98898, -0,02695, 0,04813, 0,13705,
 11:29:03.935,COM3, 2000-0-0 0:7:16.400, -0,101, -0,039, 0,979, 0,061, -0,183, 0,000, -2,313, 5,889, 15,656, 26,617, 138,250, -92,108, 36,16,,,,,,,, 0, 0,00, 0,00, 0,00, 0,98898, -0,02695, 0,04813, 0,13705,
 11:29:03.945,COM3, 2000-0-0 0:7:16.410, -0,098, -0,043, 0,992, -0,061, 0,183, 0,000, -2,313, 5,889, 15,656, 26,600, 138,242, -92,100, 36,16,,,,,,,, 0, 0,00, 0,00, 0,00, 0,98898, -0,02698, 0,04813, 0,13705,
 11:29:03.956,COM3, 2000-0-0 0:7:16.420, -0,104, -0,041, 0,980, 0,061, -0,122, 0,000, -2,313, 5,889, 15,656, 26,583, 138,225, -92,108, 36,16,,,,,,,, 0, 0,00, 0,00, 0,00, 0,98898, -0,02698, 0,04813, 0,13705,
 11:29:03.964,COM3, 2000-0-0 0:7:16.430, -0,098, -0,039, 0,997, 0,000, 0,244, 0,000, -2,313, 5,889, 15,656, 26,542, 138,208, -92,083, 36,04,,,,,,,, 0, 0,00, 0,00, 0,00, 0,98898, -0,02698, 0,04816, 0,13705,
 11:29:03.975,COM3, 2000-0-0 0:7:16.440, -0,107, -0,043, 0,976, 0,061, -0,122, 0,000, -2,313, 5,889, 15,656, 26,500, 138,208, -92,025, 36,10,,,,,,,, 0, 0,00, 0,00, 0,00, 0,98898, -0,02698, 0,04816, 0,13705,
 11:29:03.985,COM3, 2000-0-0 0:7:16.450, -0,093, -0,038, 0,994, -0,061, 0,183, 0,000, -2,313, 5,889, 15,656, 26,492, 138,200, -91,975, 36,16,,,,,,,, 0, 0,00, 0,00, 0,00, 0,98898, -0,02698, 0,04816, 0,13705,
 11:29:03.994,COM3, 2000-0-0 0:7:16.460, -0,107, -0,040, 0,973, 0,061, -0,122, 0,000, -2,313, 5,889, 15,656, 26,442, 138,167, -91,992, 36,16,,,,,,,, 0, 0,00, 0,00, 0,00, 0,98898, -0,02698, 0,04816, 0,13705,
 11:29:04.004,COM3, 2000-0-0 0:7:16.470, -0,089, -0,042, 1,000, 0,000, 0,183, 0,000, -2,313, 5,889, 15,656, 26,383, 138,075, -92,083, 36,04,,,,,,,, 0, 0,00, 0,00, 0,00, 0,98898, -0,02698, 0,04816, 0,13705,
 11:29:04.014,COM3, 2000-0-0 0:7:16.480, -0,114, -0,043, 0,977, 0,122, -0,122, 0,000, -2,313, 5,889, 15,656, 26,333, 138,025, -92,158, 36,10,,,,,,,, 0, 0,00, 0,00, 0,00, 0,98898, -0,02698, 0,04816, 0,13705,
 11:29:04.024,COM3, 2000-0-0 0:7:16.490, -0,092, -0,037, 0,998, 0,000, 0,061, 0,000, -2,313, 5,889, 15,656, 26,308, 138,008, -92,217, 36,29,,,,,,,, 0, 0,00, 0,00, 0,00, 0,98898, -0,02698, 0,04816, 0,13705,
 11:29:04.035,COM3, 2000-0-0 0:7:16.500, -0,112, -0,041, 0,972, 0,061, 0,000, 0,000, -2,313, 5,889, 15,656, 26,308, 138,000, -92,267, 36,10,,,,,,,, 0, 0,00, 0,00, 0,00, 0,98898, -0,02698, 0,04816, 0,13705,
 11:29:04.045,COM3, 2000-0-0 0:7:16.510, -0,091, -0,034, 1,000, -0,061, -0,061, 0,000, -2,313, 5,889, 15,656, 26,258, 138,008, -92,292, 36,04,,,,,,,, 0, 0,00, 0,00, 0,00, 0,98898, -0,02698, 0,04816, 0,13705,
 11:29:04.055,COM3, 2000-0-0 0:7:16.520, -0,114, -0,044, 0,974, -0,183, 0,000, 0,000, -2,313, 5,889, 15,656, 26,208, 138,000, -92,292, 36,23,,,,,,,, 0, 0,00, 0,00, 0,00, 0,98898, -0,02698, 0,04816, 0,13705,
 11:29:04.063,COM3, 2000-0-0 0:7:16.530, -0,091, -0,037, 0,999, 0,244, -0,061, 0,000, -2,313, 5,889, 15,656, 26,183, 137,967, -92,242, 36,16,,,,,,,, 0, 0,00, 0,00, 0,00, 0,98898, -0,02698, 0,04816, 0,13705,
 11:29:04.074,COM3, 2000-0-0 0:7:16.540, -0,110, -0,042, 0,973, 0,000, 0,122, 0,000, -2,313, 5,894, 15,656, 26,175, 137,925, -92,192, 36,10,,,,,,,, 0, 0,00, 0,00, 0,00, 0,98898, -0,02695, 0,04816, 0,13705,
 11:29:04.085,COM3, 2000-0-0 0:7:16.550, -0,091, -0,039, 0,998, 0,122, -0,183, 0,000, -2,313, 5,889, 15,656, 26,167, 137,892, -92,183, 36,04,,,,,,,, 0, 0,00, 0,00, 0,00, 0,98898, -0,02698, 0,04816, 0,13705,
 11:29:04.095,COM3, 2000-0-0 0:7:16.560, -0,108, -0,040, 0,976, -0,183, 0,244, 0,000, -2,313, 5,894, 15,656, 26,175, 137,858, -92,267, 36,10,,,,,,,, 0, 0,00, 0,00, 0,00, 0,98898, -0,02698, 0,04816, 0,13705,
 11:29:04.104,COM3, 2000-0-0 0:7:16.570, -0,095, -0,039, 0,995, 0,183, -0,183, 0,000, -2,313, 5,889, 15,656, 26,183, 137,875, -92,275, 36,10,,,,,,,, 0, 0,00, 0,00, 0,00, 0,98898, -0,02698, 0,04816, 0,13705,
 11:29:04.114,COM3, 2000-0-0 0:7:16.580, -0,106, -0,039, 0,984, -0,122, 0,122, 0,000, -2,313, 5,889, 15,656, 26,192, 137,875, -92,233, 36,10,,,,,,,, 0, 0,00, 0,00, 0,00, 0,98898, -0,02698, 0,04816, 0,13705,
 11:29:04.124,COM3, 2000-0-0 0:7:16.590, -0,100, -0,040, 0,987, 0,244, -0,183, 0,000, -2,313, 5,889, 15,656, 26,175, 137,875, -92,217, 36,10,,,,,,,, 0, 0,00, 0,00, 0,00, 0,98898, -0,02698, 0,04816, 0,13705,
 11:29:04.135,COM3, 2000-0-0 0:7:16.600, -0,105, -0,043, 0,987, -0,244, 0,122, 0,000, -2,313, 5,889, 15,656, 26,125, 137,850, -92,192, 35,97,,,,,,,, 0, 0,00, 0,00, 0,00, 0,98898, -0,02698, 0,04816, 0,13705,
 11:29:04.144,COM3, 2000-0-0 0:7:16.610, -0,098, -0,040, 0,981, 0,305, 0,000, 0,000, -2,313, 5,889, 15,656, 26,108, 137,808, -92,158, 36,23,,,,,,,, 0, 0,00, 0,00, 0,00, 0,98898, -0,02698, 0,04816, 0,13705,
 11:29:04.154,COM3, 2000-0-0 0:7:16.620, -0,104, -0,039, 0,993, -0,244, 0,244, 0,000, -2,313, 5,894, 15,656, 26,117, 137,800, -92,175, 36,04,,,,,,,, 0, 0,00, 0,00, 0,00, 0,98898, -0,02698, 0,04816, 0,13705,
 11:29:04.164,COM3, 2000-0-0 0:7:16.630, -0,101, -0,041, 0,982, 0,244, -0,061, 0,000, -2,313, 5,894, 15,656, 26,075, 137,800, -92,233, 36,10,,,,,,,, 0, 0,00, 0,00, 0,00, 0,98898, -0,02698, 0,04816, 0,13705,
 11:29:04.173,COM3, 2000-0-0 0:7:16.640, -0,100, -0,040, 0,996, -0,244, 0,244, 0,000, -2,313, 5,894, 15,656, 26,042, 137,783, -92,258, 36,10,,,,,,,, 0, 0,00, 0,00, 0,00, 0,98898, -0,02698, 0,04816, 0,13705,
 11:29:04.184,COM3, 2000-0-0 0:7:16.650, -0,104, -0,041, 0,973, 0,305, -0,183, 0,000, -2,313, 5,894, 15,656, 26,075, 137,783, -92,225, 36,29,,,,,,,, 0, 0,00, 0,00, 0,00, 0,98898, -0,02698, 0,04816, 0,13705,
 11:29:04.194,COM3, 2000-0-0 0:7:16.660, -0,100, -0,039, 1,003, 0,000, 0,183, 0,000, -2,313, 5,894, 15,656, 26,092, 137,783, -92,208, 36,10,,,,,,,, 0, 0,00, 0,00, 0,00, 0,98898, -0,02698, 0,04816, 0,13705,
 11:29:04.205,COM3, 2000-0-0 0:7:16.670, -0,106, -0,041, 0,975, 0,061, -0,183, 0,000, -2,313, 5,894, 15,656, 26,075, 137,792, -92,175, 36,10,,,,,,,, 0, 0,00, 0,00, 0,00, 0,98898, -0,02698, 0,04816, 0,13705,
 11:29:04.215,COM3, 2000-0-0 0:7:16.680, -0,097, -0,039, 1,004, -0,122, 0,122, 0,000, -2,313, 5,894, 15,656, 26,083, 137,808, -92,092, 36,16,,,,,,,, 0, 0,00, 0,00, 0,00, 0,98898, -0,02698, 0,04816, 0,13705,
 11:29:04.224,COM3, 2000-0-0 0:7:16.690, -0,108, -0,042, 0,971, 0,000, -0,183, 0,000, -2,313, 5,894, 15,656, 26,067, 137,817, -92,133, 36,10,,,,,,,, 0, 0,00, 0,00, 0,00, 0,98898, -0,02698, 0,04816, 0,13705,
 11:29:04.234,COM3, 2000-0-0 0:7:16.700, -0,095, -0,037, 0,998, 0,000, 0,061, 0,000, -2,313, 5,889, 15,656, 26,117, 137,875, -92,217, 36,23,,,,,,,, 0, 0,00, 0,00, 0,00, 0,98898, -0,02698, 0,04816, 0,13705,
 11:29:04.243,COM3, 2000-0-0 0:7:16.710, -0,109, -0,045, 0,973, 0,000, -0,122, 0,000, -2,313, 5,889, 15,656, 26,217, 137,933, -92,283, 36,16,,,,,,,, 0, 0,00, 0,00, 0,00, 0,98898, -0,02698, 0,04816, 0,13705,
 11:29:04.254,COM3, 2000-0-0 0:7:16.720, -0,093, -0,040, 1,001, 0,122, -0,183, 0,000, -2,313, 5,889, 15,656, 26,267, 137,958, -92,325, 36,04,,,,,,,, 0, 0,00, 0,00, 0,00, 0,98898, -0,02698, 0,04816, 0,13705,
 11:29:04.264,COM3, 2000-0-0 0:7:16.730, -0,112, -0,044, 0,976, 0,000, 0,000, 0,000, -2,313, 5,889, 15,656, 26,258, 137,958, -92,333, 36,23,,,,,,,, 0, 0,00, 0,00, 0,00, 0,98898, -0,02698, 0,04813, 0,13705,
 11:29:04.273,COM3, 2000-0-0 0:7:16.740, -0,092, -0,038, 0,997, 0,000, 0,000, 0,000, -2,313, 5,889, 15,656, 26,250, 137,983, -92,308, 36,16,,,,,,,, 0, 0,00, 0,00, 0,00, 0,98898, -0,02698, 0,04813, 0,13705,
 11:29:04.283,COM3, 2000-0-0 0:7:16.750, -0,113, -0,043, 0,980, -0,122, 0,183, 0,000, -2,313, 5,889, 15,656, 26,225, 138,008, -92,292, 36,04,,,,,,,, 0, 0,00, 0,00, 0,00, 0,98898, -0,02698, 0,04813, 0,13705,
 11:29:04.293,COM3, 2000-0-0 0:7:16.760, -0,091, -0,039, 0,993, 0,122, -0,183, 0,000, -2,313, 5,889, 15,656, 26,150, 138,000, -92,300, 36,16,,,,,,,, 0, 0,00, 0,00, 0,00, 0,98898, -0,02698, 0,04813, 0,13705,
 11:29:04.303,COM3, 2000-0-0 0:7:16.770, -0,110, -0,041, 0,980, -0,122, 0,000, 0,000, -2,313, 5,889, 15,656, 26,092, 137,992, -92,275, 36,04,,,,,,,, 0, 0,00, 0,00, 0,00, 0,98898, -0,02698, 0,04813, 0,13705,
 11:29:04.313,COM3, 2000-0-0 0:7:16.780, -0,090, -0,038, 0,991, 0,061, -0,183, 0,000, -2,313, 5,889, 15,656, 26,083, 137,958, -92,233, 36,10,,,,,,,, 0, 0,00, 0,00, 0,00, 0,98898, -0,02698, 0,04813, 0,13705,
 11:29:04.323,COM3, 2000-0-0 0:7:16.790, -0,111, -0,042, 0,983, -0,061, 0,244, 0,000, -2,313, 5,889, 15,656, 26,108, 137,950, -92,208, 36,04,,,,,,,, 0, 0,00, 0,00, 0,00, 0,98898, -0,02698, 0,04813, 0,13705,
 11:29:04.334,COM3, 2000-0-0 0:7:16.800, -0,096, -0,039, 0,994, 0,122, -0,183, 0,000, -2,313, 5,889, 15,656, 26,158, 137,967, -92,242, 36,10,,,,,,,, 0, 0,00, 0,00, 0,00, 0,98898, -0,02698, 0,04813, 0,13705,
 11:29:04.342,COM3, 2000-0-0 0:7:16.810, -0,105, -0,040, 0,984, -0,061, 0,305, 0,000, -2,313, 5,889, 15,656, 26,217, 138,008, -92,342, 36,23,,,,,,,, 0, 0,00, 0,00, 0,00, 0,98898, -0,02698, 0,04813, 0,13705,
 11:29:04.353,COM3, 2000-0-0 0:7:16.820, -0,099, -0,038, 0,982, 0,000, -0,122, 0,000, -2,313, 5,889, 15,656, 26,250, 138,017, -92,425, 36,23,,,,,,,, 0, 0,00, 0,00, 0,00, 0,98898, -0,02698, 0,04813, 0,13705,
 11:29:04.363,COM3, 2000-0-0 0:7:16.830, -0,100, -0,043, 0,991, -0,244, 0,244, 0,000, -2,313, 5,889, 15,656, 26,258, 138,025, -92,450, 36,16,,,,,,,, 0, 0,00, 0,00, 0,00, 0,98898, -0,02698, 0,04813, 0,13705,
 11:29:04.373,COM3, 2000-0-0 0:7:16.840, -0,103, -0,041, 0,981, 0,122, -0,183, 0,000, -2,313, 5,889, 15,656, 26,250, 138,042, -92,450, 36,16,,,,,,,, 0, 0,00, 0,00, 0,00, 0,98898, -0,02701, 0,04813, 0,13705,
 11:29:04.383,COM3, 2000-0-0 0:7:16.850, -0,097, -0,041, 0,993, -0,061, 0,183, 0,000, -2,313, 5,889, 15,656, 26,233, 138,042, -92,442, 36,04,,,,,,,, 0, 0,00, 0,00, 0,00, 0,98898, -0,02698, 0,04813, 0,13705,
 11:29:04.394,COM3, 2000-0-0 0:7:16.860, -0,105, -0,041, 0,977, 0,122, -0,305, 0,000, -2,313, 5,889, 15,656, 26,233, 138,000, -92,417, 36,04,,,,,,,, 0, 0,00, 0,00, 0,00, 0,98898, -0,02701, 0,04816, 0,13705,
 11:29:04.404,COM3, 2000-0-0 0:7:16.870, -0,098, -0,040, 1,003, -0,183, 0,244, 0,000, -2,318, 5,889, 15,656, 26,217, 137,983, -92,375, 36,10,,,,,,,, 0, 0,00, 0,00, 0,00, 0,98898, -0,02698, 0,04813, 0,13705,
 11:29:04.414,COM3, 2000-0-0 0:7:16.880, -0,110, -0,040, 0,976, 0,061, -0,183, 0,000, -2,318, 5,889, 15,656, 26,200, 137,992, -92,292, 36,10,,,,,,,, 0, 0,00, 0,00, 0,00, 0,98898, -0,02701, 0,04813, 0,13705,
 11:29:04.424,COM3, 2000-0-0 0:7:16.890, -0,097, -0,039, 1,001, -0,183, 0,000, 0,000, -2,318, 5,889, 15,656, 26,192, 138,025, -92,217, 36,04,,,,,,,, 0, 0,00, 0,00, 0,00, 0,98898, -0,02701, 0,04813, 0,13705,
 11:29:04.434,COM3, 2000-0-0 0:7:16.900, -0,109, -0,042, 0,973, 0,061, -0,061, 0,000, -2,318, 5,889, 15,656, 26,183, 138,017, -92,192, 36,16,,,,,,,, 0, 0,00, 0,00, 0,00, 0,98898, -0,02701, 0,04813, 0,13705,
 11:29:04.443,COM3, 2000-0-0 0:7:16.910, -0,092, -0,037, 1,000, 0,122, -0,061, 0,000, -2,313, 5,889, 15,656, 26,183, 138,008, -92,250, 36,10,,,,,,,, 0, 0,00, 0,00, 0,00, 0,98898, -0,02701, 0,04813, 0,13705,
 11:29:04.453,COM3, 2000-0-0 0:7:16.920, -0,110, -0,042, 0,972, 0,000, 0,000, 0,000, -2,318, 5,889, 15,656, 26,183, 138,050, -92,342, 36,16,,,,,,,, 0, 0,00, 0,00, 0,00, 0,98898, -0,02701, 0,04813, 0,13705,
 11:29:04.463,COM3, 2000-0-0 0:7:16.930, -0,093, -0,037, 0,995, 0,122, 0,000, 0,000, -2,313, 5,883, 15,656, 26,158, 138,092, -92,383, 36,10,,,,,,,, 0, 0,00, 0,00, 0,00, 0,98898, -0,02701, 0,04813, 0,13705,
 11:29:04.473,COM3, 2000-0-0 0:7:16.940, -0,109, -0,045, 0,975, 0,000, 0,000, 0,000, -2,318, 5,889, 15,656, 26,142, 138,108, -92,342, 36,10,,,,,,,, 0, 0,00, 0,00, 0,00, 0,98898, -0,02698, 0,04810, 0,13705,
 11:29:04.482,COM3, 2000-0-0 0:7:16.950, -0,092, -0,037, 1,000, 0,122, -0,061, 0,000, -2,313, 5,883, 15,656, 26,142, 138,117, -92,367, 36,10,,,,,,,, 0, 0,00, 0,00, 0,00, 0,98898, -0,02701, 0,04810, 0,13705,
 11:29:04.492,COM3, 2000-0-0 0:7:16.960, -0,110, -0,041, 0,980, -0,061, 0,061, 0,000, -2,318, 5,889, 15,656, 26,142, 138,083, -92,367, 36,16,,,,,,,, 0, 0,00, 0,00, 0,00, 0,98898, -0,02698, 0,04810, 0,13705,
 11:29:04.502,COM3, 2000-0-0 0:7:16.970, -0,094, -0,036, 0,988, 0,183, -0,244, 0,000, -2,313, 5,883, 15,656, 26,133, 138,033, -92,367, 36,23,,,,,,,, 0, 0,00, 0,00, 0,00, 0,98898, -0,02701, 0,04813, 0,13705,
 11:29:04.512,COM3, 2000-0-0 0:7:16.980, -0,111, -0,039, 0,983, -0,244, 0,000, 0,000, -2,318, 5,883, 15,656, 26,125, 138,008, -92,342, 36,10,,,,,,,, 0, 0,00, 0,00, 0,00, 0,98898, -0,02698, 0,04810, 0,13705,
 11:29:04.522,COM3, 2000-0-0 0:7:16.990, -0,094, -0,041, 0,985, 0,183, -0,061, 0,000, -2,313, 5,883, 15,656, 26,192, 138,033, -92,392, 36,10,,,,,,,, 0, 0,00, 0,00, 0,00, 0,98898, -0,02701, 0,04810, 0,13705,
 11:29:04.532,COM3, 2000-0-0 0:7:17.000, -0,106, -0,042, 0,990, -0,122, 0,000, 0,000, -2,313, 5,883, 15,656, 26,325, 138,092, -92,483, 36,10,,,,,,,, 0, 0,00, 0,00, 0,00, 0,98898, -0,02698, 0,04810, 0,13705,
 11:29:04.542,COM3, 2000-0-0 0:7:17.010, -0,101, -0,040, 0,978, 0,183, -0,122, 0,000, -2,313, 5,883, 15,656, 26,417, 138,175, -92,442, 36,04,,,,,,,, 0, 0,00, 0,00, 0,00, 0,98898, -0,02698, 0,04810, 0,13705,
 11:29:04.552,COM3, 2000-0-0 0:7:17.020, -0,103, -0,039, 0,998, -0,244, 0,122, 0,000, -2,313, 5,883, 15,656, 26,567, 138,283, -92,175, 36,10,,,,,,,, 0, 0,00, 0,00, 0,00, 0,98898, -0,02698, 0,04810, 0,13705,
 11:29:04.562,COM3, 2000-0-0 0:7:17.030, -0,104, -0,042, 0,980, 0,183, -0,183, 0,000, -2,313, 5,883, 15,656, 26,742, 138,392, -91,908, 36,10,,,,,,,, 0, 0,00, 0,00, 0,00, 0,98898, -0,02698, 0,04810, 0,13705,
 11:29:04.572,COM3, 2000-0-0 0:7:17.040, -0,099, -0,040, 0,993, -0,122, 0,244, 0,000, -2,313, 5,883, 15,656, 26,842, 138,450, -91,842, 36,10,,,,,,,, 0, 0,00, 0,00, 0,00, 0,98898, -0,02698, 0,04810, 0,13705,
 11:29:04.582,COM3, 2000-0-0 0:7:17.050, -0,103, -0,043, 0,975, 0,244, -0,061, 0,000, -2,313, 5,883, 15,656, 26,867, 138,475, -91,858, 36,29,,,,,,,, 0, 0,00, 0,00, 0,00, 0,98898, -0,02698, 0,04810, 0,13705,
 11:29:04.592,COM3, 2000-0-0 0:7:17.060, -0,096, -0,041, 0,998, -0,122, 0,183, 0,000, -2,318, 5,883, 15,656, 26,833, 138,483, -91,850, 36,16,,,,,,,, 0, 0,00, 0,00, 0,00, 0,98898, -0,02698, 0,04810, 0,13705,
 11:29:04.602,COM3, 2000-0-0 0:7:17.070, -0,111, -0,042, 0,974, 0,061, -0,305, 0,000, -2,318, 5,883, 15,656, 26,833, 138,467, -91,900, 36,23,,,,,,,, 0, 0,00, 0,00, 0,00, 0,98898, -0,02701, 0,04810, 0,13705,
 11:29:04.612,COM3, 2000-0-0 0:7:17.080, -0,096, -0,037, 0,997, -0,061, 0,183, 0,000, -2,318, 5,883, 15,656, 26,858, 138,433, -92,017, 36,16,,,,,,,, 0, 0,00, 0,00, 0,00, 0,98898, -0,02701, 0,04810, 0,13705,
 11:29:04.622,COM3, 2000-0-0 0:7:17.090, -0,111, -0,042, 0,977, 0,183, -0,183, 0,000, -2,318, 5,883, 15,656, 26,892, 138,417, -92,133, 36,04,,,,,,,, 0, 0,00, 0,00, 0,00, 0,98898, -0,02701, 0,04810, 0,13705,
 11:29:04.632,COM3, 2000-0-0 0:7:17.100, -0,091, -0,039, 1,000, 0,183, 0,183, 0,000, -2,313, 5,883, 15,656, 26,933, 138,417, -92,200, 36,16,,,,,,,, 0, 0,00, 0,00, 0,00, 0,98898, -0,02701, 0,04810, 0,13705,
 11:29:04.643,COM3, 2000-0-0 0:7:17.110, -0,109, -0,044, 0,971, 0,000, 0,000, 0,000, -2,313, 5,883, 15,656, 26,942, 138,433, -92,242, 36,23,,,,,,,, 0, 0,00, 0,00, 0,00, 0,98898, -0,02698, 0,04810, 0,13705,
 11:29:04.652,COM3, 2000-0-0 0:7:17.120, -0,090, -0,037, 1,000, 0,000, 0,000, 0,000, -2,313, 5,883, 15,656, 27,000, 138,425, -92,308, 36,16,,,,,,,, 0, 0,00, 0,00, 0,00, 0,98898, -0,02698, 0,04810, 0,13705,
 11:29:04.662,COM3, 2000-0-0 0:7:17.130, -0,112, -0,042, 0,977, -0,183, 0,061, 0,000, -2,318, 5,883, 15,656, 27,050, 138,417, -92,375, 36,10,,,,,,,, 0, 0,00, 0,00, 0,00, 0,98898, -0,02698, 0,04810, 0,13705,
 11:29:04.672,COM3, 2000-0-0 0:7:17.140, -0,093, -0,041, 0,992, 0,122, -0,061, 0,000, -2,313, 5,883, 15,656, 27,058, 138,417, -92,433, 36,23,,,,,,,, 0, 0,00, 0,00, 0,00, 0,98898, -0,02701, 0,04810, 0,13705,
 11:29:04.682,COM3, 2000-0-0 0:7:17.150, -0,107, -0,041, 0,981, -0,122, 0,244, 0,000, -2,318, 5,883, 15,656, 27,042, 138,400, -92,450, 36,16,,,,,,,, 0, 0,00, 0,00, 0,00, 0,98898, -0,02698, 0,04807, 0,13705,
 11:29:04.692,COM3, 2000-0-0 0:7:17.160, -0,095, -0,040, 0,992, 0,305, -0,183, 0,000, -2,313, 5,883, 15,656, 27,017, 138,408, -92,417, 36,04,,,,,,,, 0, 0,00, 0,00, 0,00, 0,98898, -0,02701, 0,04810, 0,13705,
 11:29:04.702,COM3, 2000-0-0 0:7:17.170, -0,107, -0,041, 0,986, -0,061, 0,183, 0,000, -2,318, 5,883, 15,656, 27,000, 138,425, -92,342, 36,16,,,,,,,, 0, 0,00, 0,00, 0,00, 0,98898, -0,02698, 0,04810, 0,13705,
 11:29:04.712,COM3, 2000-0-0 0:7:17.180, -0,099, -0,041, 0,979, 0,244, -0,305, 0,000, -2,318, 5,883, 15,656, 27,000, 138,467, -92,275, 36,35,,,,,,,, 0, 0,00, 0,00, 0,00, 0,98898, -0,02701, 0,04810, 0,13705,
 11:29:04.722,COM3, 2000-0-0 0:7:17.190, -0,106, -0,041, 0,991, -0,244, 0,244, 0,000, -2,318, 5,883, 15,656, 27,008, 138,508, -92,300, 36,10,,,,,,,, 0, 0,00, 0,00, 0,00, 0,98898, -0,02698, 0,04810, 0,13705,
 11:29:04.732,COM3, 2000-0-0 0:7:17.200, -0,101, -0,042, 0,975, 0,122, -0,122, 0,000, -2,318, 5,883, 15,656, 27,000, 138,500, -92,333, 36,23,,,,,,,, 0, 0,00, 0,00, 0,00, 0,98898, -0,02701, 0,04810, 0,13705,
 11:29:04.742,COM3, 2000-0-0 0:7:17.210, -0,103, -0,040, 0,994, -0,183, 0,122, 0,000, -2,318, 5,883, 15,656, 27,008, 138,500, -92,383, 36,10,,,,,,,, 0, 0,00, 0,00, 0,00, 0,98898, -0,02701, 0,04810, 0,13705,
 11:29:04.752,COM3, 2000-0-0 0:7:17.220, -0,101, -0,043, 0,975, 0,061, -0,305, 0,000, -2,318, 5,883, 15,656, 27,000, 138,475, -92,425, 35,97,,,,,,,, 0, 0,00, 0,00, 0,00, 0,98898, -0,02701, 0,04810, 0,13705,
 11:29:04.762,COM3, 2000-0-0 0:7:17.230, -0,099, -0,040, 1,000, -0,183, 0,122, 0,000, -2,318, 5,883, 15,656, 26,950, 138,392, -92,442, 36,23,,,,,,,, 0, 0,00, 0,00, 0,00, 0,98898, -0,02701, 0,04807, 0,13705,
 11:29:04.772,COM3, 2000-0-0 0:7:17.240, -0,106, -0,042, 0,975, 0,000, -0,122, 0,000, -2,318, 5,883, 15,656, 26,892, 138,300, -92,467, 36,29,,,,,,,, 0, 0,00, 0,00, 0,00, 0,98898, -0,02701, 0,04810, 0,13705,
 11:29:04.782,COM3, 2000-0-0 0:7:17.250, -0,095, -0,037, 1,000, 0,000, 0,183, 0,000, -2,318, 5,883, 15,656, 26,850, 138,242, -92,467, 36,23,,,,,,,, 0, 0,00, 0,00, 0,00, 0,98898, -0,02704, 0,04807, 0,13705,
 11:29:04.792,COM3, 2000-0-0 0:7:17.260, -0,112, -0,044, 0,974, -0,061, 0,000, 0,000, -2,318, 5,883, 15,656, 26,800, 138,242, -92,458, 36,35,,,,,,,, 0, 0,00, 0,00, 0,00, 0,98898, -0,02704, 0,04807, 0,13705,
 11:29:04.802,COM3, 2000-0-0 0:7:17.270, -0,092, -0,038, 0,997, 0,000, 0,183, 0,000, -2,318, 5,883, 15,656, 26,750, 138,242, -92,467, 36,23,,,,,,,, 0, 0,00, 0,00, 0,00, 0,98898, -0,02704, 0,04810, 0,13705,
 11:29:04.812,COM3, 2000-0-0 0:7:17.280, -0,111, -0,045, 0,975, 0,000, 0,000, 0,000, -2,318, 5,883, 15,656, 26,692, 138,225, -92,525, 36,04,,,,,,,, 0, 0,00, 0,00, 0,00, 0,98898, -0,02704, 0,04810, 0,13705,
 11:29:04.822,COM3, 2000-0-0 0:7:17.290, -0,094, -0,040, 1,002, 0,000, -0,061, 0,000, -2,318, 5,883, 15,656, 26,650, 138,225, -92,583, 36,04,,,,,,,, 0, 0,00, 0,00, 0,00, 0,98898, -0,02704, 0,04810, 0,13705,
 11:29:04.832,COM3, 2000-0-0 0:7:17.300, -0,110, -0,044, 0,974, -0,183, 0,183, 0,000, -2,324, 5,889, 15,656, 26,600, 138,225, -92,558, 36,48,,,,,,,, 0, 0,00, 0,00, 0,00, 0,98898, -0,02704, 0,04810, 0,13705,
 11:29:04.842,COM3, 2000-0-0 0:7:17.310, -0,094, -0,041, 0,995, 0,183, 0,000, 0,000, -2,318, 5,883, 15,656, 26,567, 138,242, -92,575, 36,35,,,,,,,, 0, 0,00, 0,00, 0,00, 0,98898, -0,02704, 0,04810, 0,13705,
 11:29:04.852,COM3, 2000-0-0 0:7:17.320, -0,110, -0,042, 0,979, -0,244, 0,061, 0,000, -2,324, 5,889, 15,656, 26,542, 138,242, -92,600, 36,04,,,,,,,, 0, 0,00, 0,00, 0,00, 0,98898, -0,02704, 0,04810, 0,13705,
 11:29:04.862,COM3, 2000-0-0 0:7:17.330, -0,094, -0,040, 0,985, 0,244, -0,122, 0,000, -2,318, 5,883, 15,656, 26,533, 138,225, -92,600, 36,10,,,,,,,, 0, 0,00, 0,00, 0,00, 0,98898, -0,02704, 0,04810, 0,13705,
 11:29:04.872,COM3, 2000-0-0 0:7:17.340, -0,105, -0,042, 0,987, -0,183, -0,061, 0,000, -2,324, 5,883, 15,656, 26,550, 138,208, -92,592, 36,04,,,,,,,, 0, 0,00, 0,00, 0,00, 0,98898, -0,02704, 0,04810, 0,13705,
 11:29:04.882,COM3, 2000-0-0 0:7:17.350, -0,099, -0,042, 0,985, 0,061, -0,122, 0,000, -2,318, 5,883, 15,656, 26,542, 138,208, -92,592, 36,10,,,,,,,, 0, 0,00, 0,00, 0,00, 0,98898, -0,02704, 0,04810, 0,13705,
 11:29:04.892,COM3, 2000-0-0 0:7:17.360, -0,104, -0,042, 0,988, -0,122, 0,305, 0,000, -2,324, 5,889, 15,656, 26,533, 138,175, -92,592, 36,04,,,,,,,, 0, 0,00, 0,00, 0,00, 0,98898, -0,02704, 0,04810, 0,13705,
 11:29:04.902,COM3, 2000-0-0 0:7:17.370, -0,099, -0,040, 0,978, 0,183, -0,183, 0,000, -2,324, 5,883, 15,656, 26,517, 138,150, -92,658, 36,16,,,,,,,, 0, 0,00, 0,00, 0,00, 0,98898, -0,02704, 0,04810, 0,13705,
 11:29:04.912,COM3, 2000-0-0 0:7:17.380, -0,101, -0,041, 1,000, -0,061, 0,122, 0,000, -2,318, 5,889, 15,656, 26,467, 138,175, -92,675, 36,10,,,,,,,, 0, 0,00, 0,00, 0,00, 0,98898, -0,02704, 0,04810, 0,13705,
 11:29:04.922,COM3, 2000-0-0 0:7:17.390, -0,104, -0,040, 0,972, 0,122, -0,122, 0,000, -2,324, 5,889, 15,656, 26,467, 138,175, -92,642, 36,23,,,,,,,, 0, 0,00, 0,00, 0,00, 0,98898, -0,02704, 0,04810, 0,13705,
 11:29:04.932,COM3, 2000-0-0 0:7:17.400, -0,100, -0,041, 0,996, -0,122, 0,122, 0,000, -2,324, 5,889, 15,656, 26,483, 138,142, -92,608, 36,29,,,,,,,, 0, 0,00, 0,00, 0,00, 0,98898, -0,02704, 0,04810, 0,13705,
 11:29:04.942,COM3, 2000-0-0 0:7:17.410, -0,107, -0,043, 0,973, 0,000, -0,061, 0,000, -2,324, 5,889, 15,656, 26,467, 138,117, -92,583, 36,16,,,,,,,, 0, 0,00, 0,00, 0,00, 0,98898, -0,02704, 0,04810, 0,13705,
 11:29:04.952,COM3, 2000-0-0 0:7:17.420, -0,095, -0,040, 1,000, 0,061, 0,000, 0,000, -2,324, 5,889, 15,656, 26,458, 138,100, -92,517, 36,04,,,,,,,, 0, 0,00, 0,00, 0,00, 0,98898, -0,02707, 0,04810, 0,13705,
 11:29:04.960,COM3, 2000-0-0 0:7:17.430, -0,108, -0,047, 0,976, 0,000, 0,000, 0,000, -2,324, 5,889, 15,656, 26,442, 138,092, -92,475, 36,23,,,,,,,, 0, 0,00, 0,00, 0,00, 0,98898, -0,02704, 0,04810, 0,13705,
 11:29:04.970,COM3, 2000-0-0 0:7:17.440, -0,091, -0,038, 0,999, 0,183, 0,000, 0,000, -2,324, 5,889, 15,656, 26,408, 138,083, -92,467, 36,04,,,,,,,, 0, 0,00, 0,00, 0,00, 0,98898, -0,02707, 0,04813, 0,13705,
 11:29:04.982,COM3, 2000-0-0 0:7:17.450, -0,110, -0,044, 0,971, 0,000, 0,122, 0,000, -2,324, 5,889, 15,656, 26,408, 138,075, -92,458, 36,29,,,,,,,, 0, 0,00, 0,00, 0,00, 0,98898, -0,02704, 0,04810, 0,13705,
 11:29:04.990,COM3, 2000-0-0 0:7:17.460, -0,095, -0,038, 0,997, 0,000, 0,000, 0,000, -2,324, 5,889, 15,656, 26,408, 138,100, -92,500, 36,23,,,,,,,, 0, 0,00, 0,00, 0,00, 0,98898, -0,02707, 0,04813, 0,13705,
 11:29:05.000,COM3, 2000-0-0 0:7:17.470, -0,112, -0,042, 0,978, -0,061, 0,000, 0,000, -2,324, 5,889, 15,656, 26,408, 138,108, -92,600, 36,10,,,,,,,, 0, 0,00, 0,00, 0,00, 0,98898, -0,02707, 0,04813, 0,13705,
 11:29:05.010,COM3, 2000-0-0 0:7:17.480, -0,093, -0,040, 0,989, 0,183, 0,000, 0,000, -2,324, 5,889, 15,656, 26,400, 138,117, -92,692, 36,41,,,,,,,, 0, 0,00, 0,00, 0,00, 0,98898, -0,02707, 0,04813, 0,13705,
 11:29:05.020,COM3, 2000-0-0 0:7:17.490, -0,107, -0,042, 0,990, 0,000, 0,122, 0,000, -2,324, 5,889, 15,656, 26,392, 138,117, -92,675, 36,16,,,,,,,, 0, 0,00, 0,00, 0,00, 0,98898, -0,02704, 0,04813, 0,13705,
 11:29:05.030,COM3, 2000-0-0 0:7:17.500, -0,099, -0,039, 0,985, 0,183, -0,183, 0,000, -2,324, 5,889, 15,656, 26,400, 138,133, -92,633, 36,10,,,,,,,, 0, 0,00, 0,00, 0,00, 0,98898, -0,02707, 0,04813, 0,13705,
 11:29:05.040,COM3, 2000-0-0 0:7:17.510, -0,103, -0,043, 0,992, -0,183, 0,183, 0,000, -2,324, 5,889, 15,656, 26,433, 138,150, -92,650, 36,10,,,,,,,, 0, 0,00, 0,00, 0,00, 0,98898, -0,02704, 0,04813, 0,13705,
 11:29:05.050,COM3, 2000-0-0 0:7:17.520, -0,100, -0,040, 0,983, 0,183, -0,244, 0,000, -2,324, 5,889, 15,656, 26,458, 138,158, -92,667, 36,23,,,,,,,, 0, 0,00, 0,00, 0,00, 0,98898, -0,02707, 0,04816, 0,13705,
 11:29:05.060,COM3, 2000-0-0 0:7:17.530, -0,101, -0,041, 0,989, -0,061, 0,244, 0,000, -2,324, 5,889, 15,656, 26,450, 138,175, -92,650, 36,16,,,,,,,, 0, 0,00, 0,00, 0,00, 0,98898, -0,02707, 0,04813, 0,13705,
 11:29:05.070,COM3, 2000-0-0 0:7:17.540, -0,102, -0,042, 0,971, 0,183, -0,183, 0,000, -2,324, 5,894, 15,656, 26,433, 138,175, -92,608, 36,16,,,,,,,, 0, 0,00, 0,00, 0,00, 0,98898, -0,02707, 0,04816, 0,13705,
 11:29:05.080,COM3, 2000-0-0 0:7:17.550, -0,101, -0,041, 1,005, 0,000, 0,244, 0,000, -2,318, 5,894, 15,656, 26,433, 138,192, -92,575, 36,10,,,,,,,, 0, 0,00, 0,00, 0,00, 0,98898, -0,02707, 0,04816, 0,13705,
 11:29:05.090,COM3, 2000-0-0 0:7:17.560, -0,105, -0,041, 0,970, 0,000, -0,122, 0,000, -2,324, 5,894, 15,656, 26,433, 138,217, -92,542, 36,04,,,,,,,, 0, 0,00, 0,00, 0,00, 0,98898, -0,02704, 0,04816, 0,13705,
 11:29:05.100,COM3, 2000-0-0 0:7:17.570, -0,097, -0,037, 0,998, 0,000, 0,000, 0,000, -2,318, 5,894, 15,656, 26,458, 138,233, -92,550, 36,10,,,,,,,, 0, 0,00, 0,00, 0,00, 0,98898, -0,02707, 0,04816, 0,13705,
 11:29:05.110,COM3, 2000-0-0 0:7:17.580, -0,108, -0,042, 0,979, -0,061, 0,000, 0,366, -2,324, 5,894, 15,661, 26,492, 138,250, -92,583, 36,29,,,,,,,, 0, 0,00, 0,00, 0,00, 0,98898, -0,02704, 0,04816, 0,13705,
 11:29:05.120,COM3, 2000-0-0 0:7:17.590, -0,092, -0,038, 0,992, 0,000, 0,000, 0,122, -2,318, 5,894, 15,661, 26,517, 138,258, -92,567, 36,16,,,,,,,, 0, 0,00, 0,00, 0,00, 0,98898, -0,02704, 0,04816, 0,13705,
 11:29:05.130,COM3, 2000-0-0 0:7:17.600, -0,108, -0,042, 0,978, -0,061, 0,000, 0,061, -2,324, 5,894, 15,661, 26,600, 138,267, -92,417, 36,41,,,,,,,, 0, 0,00, 0,00, 0,00, 0,98898, -0,02704, 0,04816, 0,13705,
 11:29:05.140,COM3, 2000-0-0 0:7:17.610, -0,091, -0,039, 0,994, 0,122, 0,000, -0,061, -2,318, 5,894, 15,661, 26,742, 138,292, -92,050, 36,16,,,,,,,, 0, 0,00, 0,00, 0,00, 0,98898, -0,02707, 0,04816, 0,13705,
 11:29:05.150,COM3, 2000-0-0 0:7:17.620, -0,109, -0,042, 0,976, 0,000, 0,061, 0,122, -2,324, 5,894, 15,661, 26,850, 138,342, -91,725, 36,10,,,,,,,, 0, 0,00, 0,00, 0,00, 0,98898, -0,02704, 0,04816, 0,13705,
 11:29:05.160,COM3, 2000-0-0 0:7:17.630, -0,094, -0,038, 0,993, 0,061, -0,244, 0,061, -2,324, 5,894, 15,661, 26,917, 138,408, -91,650, 36,10,,,,,,,, 0, 0,00, 0,00, 0,00, 0,98898, -0,02707, 0,04819, 0,13708,
 11:29:05.170,COM3, 2000-0-0 0:7:17.640, -0,110, -0,043, 0,982, -0,061, 0,122, 0,061, -2,324, 5,894, 15,661, 26,917, 138,425, -91,733, 36,16,,,,,,,, 0, 0,00, 0,00, 0,00, 0,98898, -0,02707, 0,04816, 0,13708,
 11:29:05.180,COM3, 2000-0-0 0:7:17.650, -0,093, -0,039, 0,982, 0,366, -0,122, -0,061, -2,318, 5,894, 15,661, 26,883, 138,433, -91,833, 36,23,,,,,,,, 0, 0,00, 0,00, 0,00, 0,98898, -0,02707, 0,04816, 0,13708,
 11:29:05.190,COM3, 2000-0-0 0:7:17.660, -0,104, -0,042, 0,994, -0,183, 0,244, 0,122, -2,324, 5,894, 15,661, 26,908, 138,458, -91,933, 36,23,,,,,,,, 0, 0,00, 0,00, 0,00, 0,98898, -0,02704, 0,04816, 0,13708,
 11:29:05.200,COM3, 2000-0-0 0:7:17.670, -0,101, -0,042, 0,976, 0,244, 0,000, 0,061, -2,318, 5,894, 15,661, 26,917, 138,475, -92,017, 36,23,,,,,,,, 0, 0,00, 0,00, 0,00, 0,98898, -0,02707, 0,04816, 0,13708,
 11:29:05.210,COM3, 2000-0-0 0:7:17.680, -0,103, -0,038, 0,995, -0,244, 0,061, 0,000, -2,324, 5,894, 15,661, 26,917, 138,467, -92,067, 36,29,,,,,,,, 0, 0,00, 0,00, 0,00, 0,98898, -0,02704, 0,04816, 0,13708,
 11:29:05.220,COM3, 2000-0-0 0:7:17.690, -0,104, -0,040, 0,979, 0,183, -0,244, 0,183, -2,324, 5,889, 15,661, 26,908, 138,433, -92,075, 36,10,,,,,,,, 0, 0,00, 0,00, 0,00, 0,98898, -0,02707, 0,04816, 0,13708,
 11:29:05.230,COM3, 2000-0-0 0:7:17.700, -0,101, -0,040, 0,997, 0,000, 0,183, 0,000, -2,318, 5,889, 15,661, 26,867, 138,425, -92,067, 36,10,,,,,,,, 0, 0,00, 0,00, 0,00, 0,98898, -0,02704, 0,04816, 0,13708,
 11:29:05.240,COM3, 2000-0-0 0:7:17.710, -0,103, -0,044, 0,976, 0,000, 0,000, 0,061, -2,324, 5,889, 15,661, 26,867, 138,483, -92,100, 36,29,,,,,,,, 0, 0,00, 0,00, 0,00, 0,98898, -0,02704, 0,04816, 0,13708,
 11:29:05.250,COM3, 2000-0-0 0:7:17.720, -0,099, -0,038, 0,999, 0,000, 0,122, -0,183, -2,324, 5,894, 15,661, 26,900, 138,517, -92,150, 36,23,,,,,,,, 0, 0,00, 0,00, 0,00, 0,98898, -0,02707, 0,04816, 0,13708,
 11:29:05.260,COM3, 2000-0-0 0:7:17.730, -0,108, -0,044, 0,975, 0,000, -0,122, 0,061, -2,324, 5,894, 15,661, 26,925, 138,500, -92,175, 36,10,,,,,,,, 0, 0,00, 0,00, 0,00, 0,98898, -0,02707, 0,04816, 0,13708,
 11:29:05.270,COM3, 2000-0-0 0:7:17.740, -0,094, -0,038, 1,002, -0,122, 0,061, 0,000, -2,324, 5,889, 15,661, 26,967, 138,450, -92,167, 36,16,,,,,,,, 0, 0,00, 0,00, 0,00, 0,98898, -0,02707, 0,04816, 0,13708,
 11:29:05.280,COM3, 2000-0-0 0:7:17.750, -0,105, -0,044, 0,973, 0,000, -0,183, 0,000, -2,324, 5,889, 15,661, 26,975, 138,408, -92,117, 36,23,,,,,,,, 0, 0,00, 0,00, 0,00, 0,98898, -0,02707, 0,04813, 0,13708,
 11:29:05.290,COM3, 2000-0-0 0:7:17.760, -0,093, -0,039, 1,002, 0,122, 0,000, 0,000, -2,324, 5,889, 15,661, 26,975, 138,375, -92,158, 36,23,,,,,,,, 0, 0,00, 0,00, 0,00, 0,98898, -0,02710, 0,04813, 0,13708,
 11:29:05.300,COM3, 2000-0-0 0:7:17.770, -0,110, -0,043, 0,975, -0,183, 0,000, 0,183, -2,329, 5,889, 15,661, 26,967, 138,358, -92,217, 36,10,,,,,,,, 0, 0,00, 0,00, 0,00, 0,98898, -0,02707, 0,04813, 0,13708,
 11:29:05.310,COM3, 2000-0-0 0:7:17.780, -0,092, -0,037, 0,994, 0,061, 0,000, 0,000, -2,324, 5,889, 15,661, 26,958, 138,375, -92,267, 36,04,,,,,,,, 0, 0,00, 0,00, 0,00, 0,98895, -0,02710, 0,04813, 0,13708,
 11:29:05.320,COM3, 2000-0-0 0:7:17.790, -0,112, -0,043, 0,986, -0,183, 0,061, 0,183, -2,329, 5,889, 15,667, 26,958, 138,417, -92,267, 36,10,,,,,,,, 0, 0,00, 0,00, 0,00, 0,98895, -0,02710, 0,04813, 0,13708,
 11:29:05.330,COM3, 2000-0-0 0:7:17.800, -0,096, -0,039, 0,985, 0,183, -0,183, 0,000, -2,329, 5,889, 15,667, 26,950, 138,442, -92,217, 36,10,,,,,,,, 0, 0,00, 0,00, 0,00, 0,98895, -0,02710, 0,04813, 0,13712,
 11:29:05.339,COM3, 2000-0-0 0:7:17.810, -0,103, -0,043, 0,992, 0,000, 0,122, 0,061, -2,329, 5,889, 15,667, 26,900, 138,425, -92,200, 36,29,,,,,,,, 0, 0,00, 0,00, 0,00, 0,98895, -0,02710, 0,04813, 0,13712,
 11:29:05.349,COM3, 2000-0-0 0:7:17.820, -0,104, -0,032, 0,982, 0,366, -0,061, -0,061, -2,324, 5,889, 15,667, 26,858, 138,417, -92,283, 36,10,,,,,,,, 0, 0,00, 0,00, 0,00, 0,98895, -0,02710, 0,04813, 0,13712,
 11:29:05.359,COM3, 2000-0-0 0:7:17.830, -0,098, -0,043, 0,997, -0,305, 0,244, 0,000, -2,329, 5,889, 15,667, 26,808, 138,408, -92,392, 36,04,,,,,,,, 0, 0,00, 0,00, 0,00, 0,98895, -0,02707, 0,04813, 0,13712,
 11:29:05.369,COM3, 2000-0-0 0:7:17.840, -0,104, -0,045, 0,988, 0,183, -0,183, 0,000, -2,329, 5,889, 15,667, 26,758, 138,383, -92,508, 36,10,,,,,,,, 0, 0,00, 0,00, 0,00, 0,98895, -0,02710, 0,04813, 0,13712,
 11:29:05.379,COM3, 2000-0-0 0:7:17.850, -0,102, -0,038, 0,991, -0,305, 0,183, 0,000, -2,329, 5,889, 15,667, 26,767, 138,367, -92,500, 36,10,,,,,,,, 0, 0,00, 0,00, 0,00, 0,98895, -0,02710, 0,04813, 0,13712,
 11:29:05.389,COM3, 2000-0-0 0:7:17.860, -0,101, -0,042, 0,981, 0,183, -0,122, -0,061, -2,329, 5,889, 15,667, 26,767, 138,333, -92,492, 36,29,,,,,,,, 0, 0,00, 0,00, 0,00, 0,98895, -0,02710, 0,04813, 0,13712,
 11:29:05.399,COM3, 2000-0-0 0:7:17.870, -0,100, -0,047, 1,001, -0,305, 0,061, 0,122, -2,329, 5,889, 15,667, 26,767, 138,308, -92,517, 36,04,,,,,,,, 0, 0,00, 0,00, 0,00, 0,98895, -0,02710, 0,04813, 0,13712,
 11:29:05.409,COM3, 2000-0-0 0:7:17.880, -0,104, -0,040, 0,968, 0,244, -0,122, 0,183, -2,329, 5,889, 15,672, 26,717, 138,283, -92,508, 36,10,,,,,,,, 0, 0,00, 0,00, 0,00, 0,98895, -0,02713, 0,04813, 0,13715,
 11:29:05.419,COM3, 2000-0-0 0:7:17.890, -0,101, -0,036, 1,004, 0,000, 0,061, 0,000, -2,329, 5,889, 15,672, 26,667, 138,283, -92,500, 36,10,,,,,,,, 0, 0,00, 0,00, 0,00, 0,98895, -0,02713, 0,04813, 0,13715,
 11:29:05.429,COM3, 2000-0-0 0:7:17.900, -0,103, -0,045, 0,971, 0,000, 0,000, 0,244, -2,329, 5,889, 15,672, 26,617, 138,308, -92,500, 36,16,,,,,,,, 0, 0,00, 0,00, 0,00, 0,98895, -0,02710, 0,04813, 0,13715,
 11:29:05.439,COM3, 2000-0-0 0:7:17.910, -0,097, -0,037, 1,003, 0,244, 0,000, -0,061, -2,324, 5,889, 15,672, 26,592, 138,317, -92,508, 36,23,,,,,,,, 0, 0,00, 0,00, 0,00, 0,98895, -0,02710, 0,04813, 0,13715,
 11:29:05.449,COM3, 2000-0-0 0:7:17.920, -0,111, -0,038, 0,973, -0,183, 0,122, -0,061, -2,329, 5,889, 15,667, 26,575, 138,300, -92,542, 36,29,,,,,,,, 0, 0,00, 0,00, 0,00, 0,98895, -0,02710, 0,04813, 0,13715,
 11:29:05.459,COM3, 2000-0-0 0:7:17.930, -0,090, -0,042, 0,998, 0,061, -0,183, 0,000, -2,329, 5,889, 15,667, 26,567, 138,267, -92,608, 36,10,,,,,,,, 0, 0,00, 0,00, 0,00, 0,98895, -0,02710, 0,04813, 0,13715,
 11:29:05.469,COM3, 2000-0-0 0:7:17.940, -0,107, -0,049, 0,976, -0,244, 0,122, 0,183, -2,329, 5,889, 15,667, 26,567, 138,225, -92,667, 36,29,,,,,,,, 0, 0,00, 0,00, 0,00, 0,98895, -0,02710, 0,04813, 0,13715,
 11:29:05.479,COM3, 2000-0-0 0:7:17.950, -0,090, -0,039, 0,992, 0,366, 0,000, 0,061, -2,324, 5,889, 15,672, 26,592, 138,183, -92,683, 36,10,,,,,,,, 0, 0,00, 0,00, 0,00, 0,98895, -0,02713, 0,04813, 0,13715,
 11:29:05.489,COM3, 2000-0-0 0:7:17.960, -0,109, -0,046, 0,984, -0,122, 0,366, 0,122, -2,329, 5,889, 15,672, 26,592, 138,142, -92,642, 36,23,,,,,,,, 0, 0,00, 0,00, 0,00, 0,98895, -0,02710, 0,04810, 0,13715,
 11:29:05.499,COM3, 2000-0-0 0:7:17.970, -0,086, -0,032, 0,996, 0,244, 0,000, 0,183, -2,324, 5,889, 15,672, 26,550, 138,125, -92,575, 36,04,,,,,,,, 0, 0,00, 0,00, 0,00, 0,98895, -0,02710, 0,04813, 0,13718,
 11:29:05.509,COM3, 2000-0-0 0:7:17.980, -0,094, -0,061, 0,993, -1,282, 0,244, 0,183, -2,335, 5,889, 15,672, 26,508, 138,142, -92,525, 36,04,,,,,,,, 0, 0,00, 0,00, 0,00, 0,98895, -0,02707, 0,04813, 0,13718,
 11:29:05.519,COM3, 2000-0-0 0:7:17.990, -0,117, -0,048, 0,970, 0,122, -0,183, 0,671, -2,335, 5,889, 15,677, 26,500, 138,150, -92,533, 36,16,,,,,,,, 0, 0,00, 0,00, 0,00, 0,98895, -0,02716, 0,04813, 0,13718,
 11:29:05.529,COM3, 2000-0-0 0:7:18.000, -0,150, 0,014, 0,996, 0,061, -0,122, 0,122, -2,335, 5,889, 15,683, 26,533, 138,142, -92,567, 36,16,,,,,,,, 0, 0,00, 0,00, 0,00, 0,98895, -0,02719, 0,04813, 0,13724,
 11:29:05.539,COM3, 2000-0-0 0:7:18.010, -0,088, -0,038, 0,960, -0,244, -0,854, 0,366, -2,335, 5,883, 15,683, 26,550, 138,133, -92,533, 36,16,,,,,,,, 0, 0,00, 0,00, 0,00, 0,98895, -0,02716, 0,04813, 0,13727,
 11:29:05.549,COM3, 2000-0-0 0:7:18.020, -0,082, -0,081, 1,037, -0,305, 0,000, 0,610, -2,335, 5,883, 15,688, 26,575, 138,125, -92,483, 36,16,,,,,,,, 0, 0,00, 0,00, 0,00, 0,98892, -0,02716, 0,04807, 0,13727,
 11:29:05.559,COM3, 2000-0-0 0:7:18.030, -0,106, -0,005, 0,965, -0,854, -0,244, 0,366, -2,346, 5,883, 15,694, 26,583, 138,117, -92,500, 35,97,,,,,,,, 0, 0,00, 0,00, 0,00, 0,98892, -0,02719, 0,04803, 0,13733,
 11:29:05.569,COM3, 2000-0-0 0:7:18.040, -0,104, -0,035, 0,968, -1,099, -0,061, 0,000, -2,351, 5,883, 15,694, 26,600, 138,117, -92,442, 36,23,,,,,,,, 0, 0,00, 0,00, 0,00, 0,98892, -0,02725, 0,04803, 0,13736,
 11:29:05.579,COM3, 2000-0-0 0:7:18.050, -0,095, -0,106, 1,002, -0,061, -0,916, 0,366, -2,357, 5,878, 15,699, 26,625, 138,125, -92,417, 36,04,,,,,,,, 0, 0,00, 0,00, 0,00, 0,98892, -0,02734, 0,04803, 0,13739,
 11:29:05.589,COM3, 2000-0-0 0:7:18.060, -0,093, -0,017, 0,973, 1,099, -0,122, 0,244, -2,351, 5,872, 15,705, 26,642, 138,100, -92,467, 36,23,,,,,,,, 0, 0,00, 0,00, 0,00, 0,98892, -0,02737, 0,04794, 0,13742,
 11:29:05.599,COM3, 2000-0-0 0:7:18.070, -0,136, -0,016, 0,972, -0,122, -0,366, 0,305, -2,346, 5,872, 15,705, 26,667, 138,100, -92,508, 36,23,,,,,,,, 0, 0,00, 0,00, 0,00, 0,98892, -0,02728, 0,04794, 0,13745,
 11:29:05.609,COM3, 2000-0-0 0:7:18.080, -0,064, -0,085, 1,019, 0,061, -0,244, 0,183, -2,346, 5,867, 15,710, 26,675, 138,133, -92,567, 36,10,,,,,,,, 0, 0,00, 0,00, 0,00, 0,98892, -0,02728, 0,04791, 0,13748,
 11:29:05.619,COM3, 2000-0-0 0:7:18.090, -0,112, -0,033, 0,972, 0,427, 0,305, 0,183, -2,346, 5,872, 15,710, 26,658, 138,133, -92,617, 36,23,,,,,,,, 0, 0,00, 0,00, 0,00, 0,98892, -0,02728, 0,04788, 0,13751,
 11:29:05.629,COM3, 2000-0-0 0:7:18.100, -0,115, -0,012, 0,971, 0,244, -0,671, -0,244, -2,340, 5,867, 15,710, 26,608, 138,142, -92,650, 36,29,,,,,,,, 0, 0,00, 0,00, 0,00, 0,98892, -0,02725, 0,04791, 0,13751,
 11:29:05.639,COM3, 2000-0-0 0:7:18.110, -0,128, -0,057, 0,979, 0,610, -0,305, -0,793, -2,340, 5,861, 15,705, 26,550, 138,175, -92,642, 36,10,,,,,,,, 0, 0,00, 0,00, 0,00, 0,98892, -0,02722, 0,04788, 0,13751,
 11:29:05.649,COM3, 2000-0-0 0:7:18.120, -0,111, -0,028, 0,982, 1,038, -1,160, -1,038, -2,329, 5,856, 15,694, 26,525, 138,175, -92,633, 36,04,,,,,,,, 0, 0,00, 0,00, 0,00, 0,98895, -0,02719, 0,04788, 0,13745,
 11:29:05.659,COM3, 2000-0-0 0:7:18.130, -0,096, -0,042, 0,985, 0,488, -0,916, -0,916, -2,324, 5,850, 15,683, 26,550, 138,175, -92,642, 36,23,,,,,,,, 0, 0,00, 0,00, 0,00, 0,98895, -0,02710, 0,04782, 0,13736,
 11:29:05.669,COM3, 2000-0-0 0:7:18.140, -0,064, -0,042, 1,004, 0,488, -1,282, -0,671, -2,324, 5,839, 15,677, 26,567, 138,192, -92,625, 36,10,,,,,,,, 0, 0,00, 0,00, 0,00, 0,98898, -0,02704, 0,04776, 0,13727,
 11:29:05.679,COM3, 2000-0-0 0:7:18.150, -0,062, -0,043, 0,985, 0,000, -0,366, 0,122, -2,324, 5,828, 15,677, 26,558, 138,175, -92,525, 36,16,,,,,,,, 0, 0,00, 0,00, 0,00, 0,98898, -0,02701, 0,04767, 0,13721,
 11:29:05.689,COM3, 2000-0-0 0:7:18.160, -0,079, -0,038, 1,005, 0,122, -0,305, 0,732, -2,318, 5,823, 15,683, 26,525, 138,158, -92,450, 36,16,,,,,,,, 0, 0,00, 0,00, 0,00, 0,98898, -0,02698, 0,04761, 0,13721,
 11:29:05.699,COM3, 2000-0-0 0:7:18.170, -0,088, -0,035, 1,003, -0,366, 0,244, 0,671, -2,324, 5,823, 15,694, 26,492, 138,175, -92,467, 36,16,,,,,,,, 0, 0,00, 0,00, 0,00, 0,98895, -0,02698, 0,04758, 0,13727,
 11:29:05.709,COM3, 2000-0-0 0:7:18.180, -0,119, -0,027, 0,982, 0,000, 0,305, 0,854, -2,318, 5,823, 15,699, 26,450, 138,200, -92,542, 36,16,,,,,,,, 0, 0,00, 0,00, 0,00, 0,98895, -0,02698, 0,04755, 0,13733,
 11:29:05.719,COM3, 2000-0-0 0:7:18.190, -0,110, -0,033, 1,011, -0,916, 0,488, 0,183, -2,324, 5,828, 15,705, 26,417, 138,208, -92,667, 36,04,,,,,,,, 0, 0,00, 0,00, 0,00, 0,98895, -0,02698, 0,04758, 0,13742,
 11:29:05.729,COM3, 2000-0-0 0:7:18.200, -0,116, -0,050, 0,962, -0,610, 0,183, 0,305, -2,329, 5,834, 15,710, 26,425, 138,217, -92,750, 36,35,,,,,,,, 0, 0,00, 0,00, 0,00, 0,98895, -0,02704, 0,04761, 0,13745,
 11:29:05.739,COM3, 2000-0-0 0:7:18.210, -0,120, -0,045, 0,990, -0,793, -0,427, 0,244, -2,335, 5,828, 15,710, 26,492, 138,208, -92,725, 36,16,,,,,,,, 0, 0,00, 0,00, 0,00, 0,98892, -0,02710, 0,04761, 0,13748,
 11:29:05.749,COM3, 2000-0-0 0:7:18.220, -0,128, -0,049, 0,950, -0,061, -0,671, 0,183, -2,340, 5,823, 15,716, 26,583, 138,167, -92,642, 36,10,,,,,,,, 0, 0,00, 0,00, 0,00, 0,98892, -0,02713, 0,04758, 0,13751,
 11:29:05.759,COM3, 2000-0-0 0:7:18.230, -0,116, -0,054, 0,990, 0,183, -0,732, 0,000, -2,340, 5,817, 15,716, 26,633, 138,158, -92,633, 36,10,,,,,,,, 0, 0,00, 0,00, 0,00, 0,98895, -0,02716, 0,04752, 0,13754,
 11:29:05.769,COM3, 2000-0-0 0:7:18.240, -0,132, -0,056, 0,972, 0,488, -0,366, 0,000, -2,335, 5,812, 15,716, 26,642, 138,167, -92,642, 36,16,,,,,,,, 0, 0,00, 0,00, 0,00, 0,98895, -0,02713, 0,04745, 0,13754,
 11:29:05.779,COM3, 2000-0-0 0:7:18.250, -0,119, -0,047, 0,986, 0,793, -0,549, 0,000, -2,329, 5,812, 15,716, 26,650, 138,158, -92,633, 36,04,,,,,,,, 0, 0,00, 0,00, 0,00, 0,98895, -0,02710, 0,04745, 0,13754,
 11:29:05.789,COM3, 2000-0-0 0:7:18.260, -0,130, -0,046, 0,970, 0,244, -0,916, 0,183, -2,324, 5,806, 15,716, 26,633, 138,183, -92,658, 36,29,,,,,,,, 0, 0,00, 0,00, 0,00, 0,98895, -0,02704, 0,04742, 0,13754,
 11:29:05.799,COM3, 2000-0-0 0:7:18.270, -0,097, -0,044, 0,983, 0,549, -2,380, 0,183, -2,324, 5,790, 15,721, 26,592, 138,225, -92,683, 36,10,,,,,,,, 0, 0,00, 0,00, 0,00, 0,98895, -0,02701, 0,04742, 0,13754,
 11:29:05.809,COM3, 2000-0-0 0:7:18.280, -0,083, -0,046, 0,986, 0,244, -2,808, 0,549, -2,318, 5,768, 15,727, 26,550, 138,250, -92,675, 36,10,,,,,,,, 0, 0,00, 0,00, 0,00, 0,98895, -0,02698, 0,04727, 0,13757,
 11:29:05.819,COM3, 2000-0-0 0:7:18.290, -0,081, -0,043, 0,990, 0,488, -3,357, 0,732, -2,318, 5,740, 15,732, 26,533, 138,283, -92,625, 36,10,,,,,,,, 0, 0,00, 0,00, 0,00, 0,98895, -0,02692, 0,04706, 0,13763,
 11:29:05.829,COM3, 2000-0-0 0:7:18.300, -0,068, -0,042, 0,994, 0,244, -2,747, 1,038, -2,318, 5,713, 15,743, 26,525, 138,275, -92,583, 36,10,,,,,,,, 0, 0,00, 0,00, 0,00, 0,98895, -0,02689, 0,04681, 0,13770,
 11:29:05.839,COM3, 2000-0-0 0:7:18.310, -0,071, -0,039, 1,002, 0,427, -2,136, 0,916, -2,313, 5,691, 15,754, 26,492, 138,233, -92,558, 36,16,,,,,,,, 0, 0,00, 0,00, 0,00, 0,98895, -0,02682, 0,04657, 0,13779,
 11:29:05.849,COM3, 2000-0-0 0:7:18.320, -0,067, -0,026, 0,998, 0,061, -1,587, 1,404, -2,307, 5,674, 15,771, 26,458, 138,208, -92,533, 36,10,,,,,,,, 0, 0,00, 0,00, 0,00, 0,98895, -0,02676, 0,04639, 0,13788,
 11:29:05.859,COM3, 2000-0-0 0:7:18.330, -0,051, -0,023, 0,990, 0,061, -1,587, 1,404, -2,307, 5,658, 15,787, 26,458, 138,225, -92,508, 36,29,,,,,,,, 0, 0,00, 0,00, 0,00, 0,98892, -0,02673, 0,04626, 0,13797,
 11:29:05.869,COM3, 2000-0-0 0:7:18.340, -0,054, -0,027, 1,000, 0,000, -1,343, 1,526, -2,302, 5,641, 15,798, 26,517, 138,242, -92,533, 36,16,,,,,,,, 0, 0,00, 0,00, 0,00, 0,98892, -0,02670, 0,04611, 0,13812,
 11:29:05.879,COM3, 2000-0-0 0:7:18.350, -0,063, -0,033, 0,986, -0,122, -1,221, 1,709, -2,302, 5,625, 15,815, 26,525, 138,242, -92,575, 36,10,,,,,,,, 0, 0,00, 0,00, 0,00, 0,98892, -0,02667, 0,04596, 0,13824,
 11:29:05.889,COM3, 2000-0-0 0:7:18.360, -0,072, -0,042, 1,011, -0,488, -0,244, 1,404, -2,307, 5,620, 15,831, 26,483, 138,233, -92,583, 36,16,,,,,,,, 0, 0,00, 0,00, 0,00, 0,98889, -0,02664, 0,04584, 0,13840,
 11:29:05.899,COM3, 2000-0-0 0:7:18.370, -0,093, -0,048, 0,997, -0,427, 0,732, 1,770, -2,307, 5,620, 15,848, 26,475, 138,242, -92,550, 36,10,,,,,,,, 0, 0,00, 0,00, 0,00, 0,98886, -0,02664, 0,04575, 0,13852,
 11:29:05.907,COM3, 2000-0-0 0:7:18.380, -0,099, -0,050, 1,003, -0,366, 1,648, 2,075, -2,313, 5,630, 15,870, 26,492, 138,242, -92,542, 36,23,,,,,,,, 0, 0,00, 0,00, 0,00, 0,98883, -0,02670, 0,04578, 0,13867,
 11:29:05.919,COM3, 2000-0-0 0:7:18.390, -0,102, -0,048, 0,982, -0,244, 1,404, 2,563, -2,313, 5,641, 15,892, 26,483, 138,233, -92,542, 35,97,,,,,,,, 0, 0,00, 0,00, 0,00, 0,98880, -0,02673, 0,04584, 0,13882,
 11:29:05.927,COM3, 2000-0-0 0:7:18.400, -0,104, -0,044, 0,986, -0,427, 1,404, 2,563, -2,313, 5,652, 15,919, 26,475, 138,233, -92,567, 36,29,,,,,,,, 0, 0,00, 0,00, 0,00, 0,98877, -0,02676, 0,04596, 0,13904,
 11:29:05.937,COM3, 2000-0-0 0:7:18.410, -0,126, -0,043, 0,977, -0,610, 0,854, 2,930, -2,318, 5,663, 15,947, 26,475, 138,233, -92,600, 36,16,,,,,,,, 0, 0,00, 0,00, 0,00, 0,98874, -0,02679, 0,04605, 0,13925,
 11:29:05.947,COM3, 2000-0-0 0:7:18.420, -0,125, -0,046, 0,993, -0,732, 0,671, 2,747, -2,324, 5,669, 15,974, 26,517, 138,233, -92,542, 36,10,,,,,,,, 0, 0,00, 0,00, 0,00, 0,98871, -0,02686, 0,04611, 0,13950,
 11:29:05.957,COM3, 2000-0-0 0:7:18.430, -0,144, -0,050, 0,980, -0,854, 0,671, 3,052, -2,329, 5,680, 16,002, 26,550, 138,225, -92,492, 36,04,,,,,,,, 0, 0,00, 0,00, 0,00, 0,98865, -0,02692, 0,04617, 0,13974,
 11:29:05.967,COM3, 2000-0-0 0:7:18.440, -0,117, -0,050, 0,986, -0,854, 0,671, 2,869, -2,335, 5,685, 16,035, 26,583, 138,217, -92,542, 36,29,,,,,,,, 0, 0,00, 0,00, 0,00, 0,98862, -0,02701, 0,04623, 0,14001,
 11:29:05.977,COM3, 2000-0-0 0:7:18.450, -0,110, -0,053, 0,972, -0,244, 0,671, 3,296, -2,335, 5,696, 16,062, 26,600, 138,225, -92,592, 36,23,,,,,,,, 0, 0,00, 0,00, 0,00, 0,98856, -0,02707, 0,04626, 0,14026,
 11:29:05.987,COM3, 2000-0-0 0:7:18.460, -0,086, -0,044, 0,985, -0,183, 0,244, 3,235, -2,335, 5,702, 16,095, 26,583, 138,192, -92,625, 36,23,,,,,,,, 0, 0,00, 0,00, 0,00, 0,98853, -0,02713, 0,04636, 0,14053,
 11:29:05.997,COM3, 2000-0-0 0:7:18.470, -0,087, -0,046, 0,981, -0,305, 0,427, 3,357, -2,340, 5,707, 16,128, 26,550, 138,158, -92,567, 36,16,,,,,,,, 0, 0,00, 0,00, 0,00, 0,98849, -0,02713, 0,04639, 0,14081,
 11:29:06.007,COM3, 2000-0-0 0:7:18.480, -0,089, -0,035, 0,998, -0,244, 0,305, 3,235, -2,340, 5,713, 16,161, 26,558, 138,158, -92,492, 36,29,,,,,,,, 0, 0,00, 0,00, 0,00, 0,98843, -0,02716, 0,04642, 0,14108,
 11:29:06.017,COM3, 2000-0-0 0:7:18.490, -0,088, -0,040, 0,987, -0,610, 0,671, 3,113, -2,340, 5,718, 16,194, 26,617, 138,183, -92,433, 36,23,,,,,,,, 0, 0,00, 0,00, 0,00, 0,98840, -0,02719, 0,04645, 0,14139,
 11:29:06.027,COM3, 2000-0-0 0:7:18.500, -0,084, -0,035, 0,987, 0,000, 0,183, 2,991, -2,340, 5,724, 16,227, 26,700, 138,192, -92,375, 36,10,,,,,,,, 0, 0,00, 0,00, 0,00, 0,98834, -0,02725, 0,04651, 0,14166,
 11:29:06.037,COM3, 2000-0-0 0:7:18.510, -0,080, -0,036, 0,979, -0,183, 0,183, 3,235, -2,340, 5,729, 16,260, 26,717, 138,175, -92,350, 36,16,,,,,,,, 0, 0,00, 0,00, 0,00, 0,98831, -0,02725, 0,04654, 0,14194,
 11:29:06.047,COM3, 2000-0-0 0:7:18.520, -0,082, -0,036, 0,973, 0,305, -0,427, 2,869, -2,335, 5,724, 16,287, 26,725, 138,217, -92,333, 36,23,,,,,,,, 0, 0,00, 0,00, 0,00, 0,98828, -0,02725, 0,04657, 0,14221,
 11:29:06.057,COM3, 2000-0-0 0:7:18.530, -0,087, -0,037, 0,978, 0,061, -0,854, 2,563, -2,335, 5,718, 16,315, 26,750, 138,275, -92,300, 36,16,,,,,,,, 0, 0,00, 0,00, 0,00, 0,98825, -0,02722, 0,04654, 0,14246,
 11:29:06.067,COM3, 2000-0-0 0:7:18.540, -0,102, -0,033, 0,972, 0,183, -1,648, 2,686, -2,329, 5,702, 16,342, 26,792, 138,317, -92,308, 36,23,,,,,,,, 0, 0,00, 0,00, 0,00, 0,98822, -0,02719, 0,04648, 0,14270,
 11:29:06.077,COM3, 2000-0-0 0:7:18.550, -0,104, -0,033, 0,994, -0,183, -1,587, 2,441, -2,329, 5,685, 16,370, 26,817, 138,367, -92,375, 36,04,,,,,,,, 0, 0,00, 0,00, 0,00, 0,98819, -0,02716, 0,04633, 0,14294,
 11:29:06.087,COM3, 2000-0-0 0:7:18.560, -0,108, -0,032, 0,994, -0,183, -1,465, 2,258, -2,324, 5,669, 16,392, 26,850, 138,400, -92,392, 36,23,,,,,,,, 0, 0,00, 0,00, 0,00, 0,98819, -0,02713, 0,04617, 0,14313,
 11:29:06.097,COM3, 2000-0-0 0:7:18.570, -0,101, -0,036, 1,002, -0,122, -0,977, 2,258, -2,324, 5,658, 16,414, 26,833, 138,417, -92,392, 36,23,,,,,,,, 0, 0,00, 0,00, 0,00, 0,98816, -0,02713, 0,04605, 0,14334,
 11:29:06.107,COM3, 2000-0-0 0:7:18.580, -0,115, -0,036, 0,999, -0,244, -0,610, 2,258, -2,324, 5,652, 16,436, 26,842, 138,442, -92,392, 36,23,,,,,,,, 0, 0,00, 0,00, 0,00, 0,98813, -0,02710, 0,04596, 0,14352,
 11:29:06.117,COM3, 2000-0-0 0:7:18.590, -0,109, -0,040, 0,986, -0,244, -0,366, 1,648, -2,324, 5,652, 16,452, 26,883, 138,450, -92,417, 36,29,,,,,,,, 0, 0,00, 0,00, 0,00, 0,98810, -0,02713, 0,04590, 0,14371,
 11:29:06.127,COM3, 2000-0-0 0:7:18.600, -0,115, -0,046, 0,982, -0,488, -0,732, 2,075, -2,329, 5,647, 16,474, 26,917, 138,483, -92,392, 36,04,,,,,,,, 0, 0,00, 0,00, 0,00, 0,98810, -0,02713, 0,04587, 0,14389,
 11:29:06.137,COM3, 2000-0-0 0:7:18.610, -0,105, -0,045, 0,974, -0,427, -0,977, 1,465, -2,329, 5,641, 16,490, 26,917, 138,542, -92,308, 36,10,,,,,,,, 0, 0,00, 0,00, 0,00, 0,98807, -0,02713, 0,04584, 0,14404,
 11:29:06.147,COM3, 2000-0-0 0:7:18.620, -0,104, -0,050, 0,979, -0,061, -1,160, 1,831, -2,329, 5,630, 16,507, 26,933, 138,575, -92,242, 36,16,,,,,,,, 0, 0,00, 0,00, 0,00, 0,98804, -0,02716, 0,04578, 0,14420,
 11:29:06.157,COM3, 2000-0-0 0:7:18.630, -0,092, -0,049, 0,993, 0,000, -0,610, 1,587, -2,329, 5,625, 16,523, 26,958, 138,542, -92,233, 36,16,,,,,,,, 0, 0,00, 0,00, 0,00, 0,98804, -0,02716, 0,04568, 0,14435,
 11:29:06.167,COM3, 2000-0-0 0:7:18.640, -0,094, -0,050, 0,997, 0,305, 0,061, 1,526, -2,324, 5,625, 16,540, 26,983, 138,525, -92,250, 36,10,,,,,,,, 0, 0,00, 0,00, 0,00, 0,98801, -0,02713, 0,04562, 0,14447,
 11:29:06.177,COM3, 2000-0-0 0:7:18.650, -0,085, -0,045, 1,006, 0,366, 0,977, 1,465, -2,318, 5,636, 16,551, 26,983, 138,558, -92,275, 36,16,,,,,,,, 0, 0,00, 0,00, 0,00, 0,98801, -0,02713, 0,04562, 0,14459,
 11:29:06.187,COM3, 2000-0-0 0:7:18.660, -0,095, -0,043, 0,989, 0,549, 1,831, 1,526, -2,318, 5,652, 16,567, 26,950, 138,583, -92,250, 36,29,,,,,,,, 0, 0,00, 0,00, 0,00, 0,98798, -0,02710, 0,04572, 0,14474,
 11:29:06.197,COM3, 2000-0-0 0:7:18.670, -0,093, -0,032, 0,980, 0,671, 1,709, 1,282, -2,307, 5,669, 16,578, 26,958, 138,592, -92,200, 36,16,,,,,,,, 0, 0,00, 0,00, 0,00, 0,98795, -0,02710, 0,04587, 0,14487,
 11:29:06.207,COM3, 2000-0-0 0:7:18.680, -0,100, -0,030, 0,984, 0,366, 1,221, 1,221, -2,307, 5,680, 16,589, 27,000, 138,592, -92,133, 36,10,,,,,,,, 0, 0,00, 0,00, 0,00, 0,98792, -0,02707, 0,04602, 0,14496,
 11:29:06.217,COM3, 2000-0-0 0:7:18.690, -0,093, -0,024, 0,980, 0,183, 0,732, 1,221, -2,302, 5,691, 16,606, 27,058, 138,600, -92,142, 36,10,,,,,,,, 0, 0,00, 0,00, 0,00, 0,98792, -0,02704, 0,04614, 0,14508,
 11:29:06.227,COM3, 2000-0-0 0:7:18.700, -0,099, -0,028, 0,990, -0,366, 0,854, 1,160, -2,302, 5,696, 16,617, 27,108, 138,608, -92,208, 36,10,,,,,,,, 0, 0,00, 0,00, 0,00, 0,98788, -0,02704, 0,04620, 0,14517,
 11:29:06.237,COM3, 2000-0-0 0:7:18.710, -0,096, -0,024, 0,992, -0,549, 0,549, 0,793, -2,307, 5,702, 16,628, 27,133, 138,583, -92,242, 35,97,,,,,,,, 0, 0,00, 0,00, 0,00, 0,98788, -0,02704, 0,04626, 0,14529,
 11:29:06.247,COM3, 2000-0-0 0:7:18.720, -0,102, -0,035, 0,995, -0,977, 0,977, 0,916, -2,313, 5,713, 16,633, 27,125, 138,558, -92,225, 36,23,,,,,,,, 0, 0,00, 0,00, 0,00, 0,98785, -0,02710, 0,04633, 0,14536,
 11:29:06.257,COM3, 2000-0-0 0:7:18.730, -0,095, -0,039, 0,990, -0,671, 0,793, 0,977, -2,318, 5,718, 16,644, 27,142, 138,550, -92,200, 36,10,,,,,,,, 0, 0,00, 0,00, 0,00, 0,98785, -0,02716, 0,04639, 0,14545,
 11:29:06.267,COM3, 2000-0-0 0:7:18.740, -0,096, -0,040, 0,988, -0,732, 0,854, 1,099, -2,324, 5,729, 16,650, 27,183, 138,500, -92,225, 36,10,,,,,,,, 0, 0,00, 0,00, 0,00, 0,98782, -0,02719, 0,04645, 0,14554,
 11:29:06.277,COM3, 2000-0-0 0:7:18.750, -0,102, -0,040, 0,974, -0,305, 0,122, 1,099, -2,324, 5,735, 16,661, 27,258, 138,425, -92,258, 36,04,,,,,,,, 0, 0,00, 0,00, 0,00, 0,98779, -0,02725, 0,04651, 0,14560,
 11:29:06.287,COM3, 2000-0-0 0:7:18.760, -0,098, -0,042, 0,976, -0,671, -0,183, 0,916, -2,329, 5,729, 16,672, 27,267, 138,417, -92,275, 36,10,,,,,,,, 0, 0,00, 0,00, 0,00, 0,98779, -0,02728, 0,04654, 0,14569,
 11:29:06.297,COM3, 2000-0-0 0:7:18.770, -0,101, -0,041, 0,975, -0,244, -0,916, 0,977, -2,329, 5,724, 16,683, 27,225, 138,442, -92,308, 36,16,,,,,,,, 0, 0,00, 0,00, 0,00, 0,98779, -0,02731, 0,04651, 0,14578,
 11:29:06.307,COM3, 2000-0-0 0:7:18.780, -0,097, -0,043, 0,987, -0,427, -0,977, 1,038, -2,335, 5,713, 16,694, 27,233, 138,458, -92,283, 36,16,,,,,,,, 0, 0,00, 0,00, 0,00, 0,98776, -0,02734, 0,04645, 0,14587,
 11:29:06.317,COM3, 2000-0-0 0:7:18.790, -0,099, -0,047, 0,979, 0,000, -0,977, 1,099, -2,335, 5,707, 16,705, 27,275, 138,492, -92,225, 36,23,,,,,,,, 0, 0,00, 0,00, 0,00, 0,98776, -0,02734, 0,04636, 0,14597,
 11:29:06.327,COM3, 2000-0-0 0:7:18.800, -0,097, -0,045, 1,000, -0,122, -0,793, 0,854, -2,335, 5,696, 16,716, 27,233, 138,533, -92,192, 36,29,,,,,,,, 0, 0,00, 0,00, 0,00, 0,98776, -0,02734, 0,04626, 0,14606,
 11:29:06.337,COM3, 2000-0-0 0:7:18.810, -0,105, -0,042, 0,985, 0,000, -0,549, 0,793, -2,329, 5,691, 16,721, 27,192, 138,533, -92,183, 36,16,,,,,,,, 0, 0,00, 0,00, 0,00, 0,98776, -0,02734, 0,04620, 0,14615,
 11:29:06.347,COM3, 2000-0-0 0:7:18.820, -0,098, -0,037, 0,997, 0,061, -0,305, 0,610, -2,329, 5,685, 16,727, 27,150, 138,533, -92,208, 36,04,,,,,,,, 0, 0,00, 0,00, 0,00, 0,98773, -0,02734, 0,04614, 0,14621,
 11:29:06.357,COM3, 2000-0-0 0:7:18.830, -0,106, -0,038, 0,980, 0,000, -0,061, 0,549, -2,329, 5,685, 16,732, 27,125, 138,558, -92,192, 36,29,,,,,,,, 0, 0,00, 0,00, 0,00, 0,98773, -0,02731, 0,04611, 0,14627,
 11:29:06.367,COM3, 2000-0-0 0:7:18.840, -0,092, -0,038, 0,989, 0,000, -0,366, 0,305, -2,329, 5,685, 16,738, 27,133, 138,583, -92,167, 36,23,,,,,,,, 0, 0,00, 0,00, 0,00, 0,98773, -0,02731, 0,04611, 0,14630,
 11:29:06.377,COM3, 2000-0-0 0:7:18.850, -0,102, -0,041, 0,979, -0,061, -0,366, 0,427, -2,329, 5,680, 16,743, 27,167, 138,567, -92,150, 36,16,,,,,,,, 0, 0,00, 0,00, 0,00, 0,98773, -0,02731, 0,04608, 0,14633,
 11:29:06.387,COM3, 2000-0-0 0:7:18.860, -0,086, -0,045, 0,992, 0,000, -0,305, 0,366, -2,329, 5,680, 16,749, 27,175, 138,542, -92,108, 36,16,,,,,,,, 0, 0,00, 0,00, 0,00, 0,98773, -0,02731, 0,04608, 0,14639,
 11:29:06.397,COM3, 2000-0-0 0:7:18.870, -0,101, -0,044, 0,989, 0,061, 0,183, 0,549, -2,329, 5,680, 16,754, 27,167, 138,533, -92,092, 36,16,,,,,,,, 0, 0,00, 0,00, 0,00, 0,98770, -0,02731, 0,04605, 0,14642,
 11:29:06.407,COM3, 2000-0-0 0:7:18.880, -0,090, -0,039, 1,003, 0,000, 0,549, 0,549, -2,329, 5,685, 16,760, 27,175, 138,542, -92,050, 36,29,,,,,,,, 0, 0,00, 0,00, 0,00, 0,98770, -0,02731, 0,04605, 0,14648,
 11:29:06.417,COM3, 2000-0-0 0:7:18.890, -0,103, -0,041, 0,986, -0,183, 0,977, 0,732, -2,329, 5,691, 16,765, 27,192, 138,558, -91,967, 36,29,,,,,,,, 0, 0,00, 0,00, 0,00, 0,98770, -0,02731, 0,04608, 0,14651,
 11:29:06.427,COM3, 2000-0-0 0:7:18.900, -0,094, -0,034, 0,995, -0,244, 0,854, 0,488, -2,329, 5,702, 16,771, 27,217, 138,600, -91,975, 36,10,,,,,,,, 0, 0,00, 0,00, 0,00, 0,98767, -0,02731, 0,04614, 0,14658,
 11:29:06.437,COM3, 2000-0-0 0:7:18.910, -0,103, -0,037, 0,983, -0,488, 0,732, 0,854, -2,335, 5,707, 16,782, 27,250, 138,625, -92,042, 36,16,,,,,,,, 0, 0,00, 0,00, 0,00, 0,98767, -0,02734, 0,04620, 0,14664,
 11:29:06.447,COM3, 2000-0-0 0:7:18.920, -0,095, -0,034, 0,986, -0,549, 0,366, 0,366, -2,340, 5,713, 16,782, 27,300, 138,625, -92,108, 36,10,,,,,,,, 0, 0,00, 0,00, 0,00, 0,98767, -0,02740, 0,04630, 0,14670,
 11:29:06.457,COM3, 2000-0-0 0:7:18.930, -0,100, -0,039, 0,984, -0,671, 0,610, 0,427, -2,346, 5,718, 16,787, 27,442, 138,675, -92,000, 36,10,,,,,,,, 0, 0,00, 0,00, 0,00, 0,98764, -0,02744, 0,04633, 0,14676,
 11:29:06.467,COM3, 2000-0-0 0:7:18.940, -0,091, -0,037, 0,987, -0,549, 0,427, 0,366, -2,346, 5,724, 16,793, 27,642, 138,758, -91,700, 36,10,,,,,,,, 0, 0,00, 0,00, 0,00, 0,98764, -0,02750, 0,04636, 0,14679,
 11:29:06.477,COM3, 2000-0-0 0:7:18.950, -0,097, -0,042, 0,989, -0,671, 0,793, 0,488, -2,351, 5,729, 16,798, 27,817, 138,842, -91,425, 36,16,,,,,,,, 0, 0,00, 0,00, 0,00, 0,98764, -0,02753, 0,04639, 0,14682,
 11:29:06.487,COM3, 2000-0-0 0:7:18.960, -0,092, -0,037, 0,988, -0,488, 0,427, 0,610, -2,357, 5,735, 16,804, 27,908, 138,875, -91,317, 36,10,,,,,,,, 0, 0,00, 0,00, 0,00, 0,98761, -0,02759, 0,04642, 0,14685,
 11:29:06.497,COM3, 2000-0-0 0:7:18.970, -0,095, -0,043, 0,980, -0,732, 0,488, 0,610, -2,362, 5,735, 16,809, 27,975, 138,883, -91,275, 36,04,,,,,,,, 0, 0,00, 0,00, 0,00, 0,98761, -0,02765, 0,04645, 0,14691,
 11:29:06.507,COM3, 2000-0-0 0:7:18.980, -0,087, -0,044, 0,985, -0,366, -0,061, 0,366, -2,368, 5,735, 16,815, 28,067, 138,883, -91,100, 36,10,,,,,,,, 0, 0,00, 0,00, 0,00, 0,98761, -0,02768, 0,04648, 0,14697,
 11:29:06.515,COM3, 2000-0-0 0:7:18.990, -0,089, -0,043, 0,980, -0,305, 0,000, 0,183, -2,368, 5,735, 16,815, 28,150, 138,917, -91,000, 36,04,,,,,,,, 0, 0,00, 0,00, 0,00, 0,98761, -0,02771, 0,04648, 0,14700,
 11:29:06.525,COM3, 2000-0-0 0:7:19.000, -0,089, -0,040, 0,981, 0,000, -0,488, 0,122, -2,368, 5,729, 16,820, 28,175, 138,933, -91,075, 36,10,,,,,,,, 0, 0,00, 0,00, 0,00, 0,98761, -0,02774, 0,04648, 0,14703,
 11:29:06.535,COM3, 2000-0-0 0:7:19.010, -0,088, -0,046, 0,987, -0,244, -0,061, 0,244, -2,368, 5,729, 16,820, 28,158, 138,892, -91,208, 36,23,,,,,,,, 0, 0,00, 0,00, 0,00, 0,98761, -0,02774, 0,04642, 0,14703,
 11:29:06.545,COM3, 2000-0-0 0:7:19.020, -0,081, -0,042, 0,982, 0,183, -0,610, 0,122, -2,368, 5,718, 16,820, 28,125, 138,867, -91,292, 36,16,,,,,,,, 0, 0,00, 0,00, 0,00, 0,98761, -0,02774, 0,04639, 0,14706,
 11:29:06.555,COM3, 2000-0-0 0:7:19.030, -0,083, -0,042, 0,996, 0,000, -0,488, 0,244, -2,368, 5,713, 16,826, 28,100, 138,867, -91,333, 36,10,,,,,,,, 0, 0,00, 0,00, 0,00, 0,98761, -0,02771, 0,04633, 0,14709,
 11:29:06.565,COM3, 2000-0-0 0:7:19.040, -0,084, -0,041, 0,983, 0,244, -0,732, 0,122, -2,368, 5,702, 16,826, 28,083, 138,867, -91,400, 36,10,,,,,,,, 0, 0,00, 0,00, 0,00, 0,98761, -0,02771, 0,04626, 0,14709,
 11:29:06.575,COM3, 2000-0-0 0:7:19.050, -0,079, -0,038, 0,999, 0,000, -0,732, 0,244, -2,362, 5,691, 16,831, 28,033, 138,858, -91,492, 36,23,,,,,,,, 0, 0,00, 0,00, 0,00, 0,98761, -0,02768, 0,04617, 0,14713,
 11:29:06.585,COM3, 2000-0-0 0:7:19.060, -0,085, -0,034, 0,979, 0,244, -0,793, 0,366, -2,362, 5,685, 16,831, 27,992, 138,850, -91,567, 36,04,,,,,,,, 0, 0,00, 0,00, 0,00, 0,98761, -0,02765, 0,04608, 0,14716,
 11:29:06.595,COM3, 2000-0-0 0:7:19.070, -0,076, -0,035, 0,996, 0,061, -0,610, 0,000, -2,362, 5,674, 16,831, 27,942, 138,850, -91,617, 36,04,,,,,,,, 0, 0,00, 0,00, 0,00, 0,98761, -0,02762, 0,04602, 0,14716,
 11:29:06.605,COM3, 2000-0-0 0:7:19.080, -0,086, -0,033, 0,986, 0,244, -0,549, 0,061, -2,357, 5,663, 16,831, 27,908, 138,850, -91,600, 36,10,,,,,,,, 0, 0,00, 0,00, 0,00, 0,98761, -0,02759, 0,04593, 0,14716,
 11:29:06.615,COM3, 2000-0-0 0:7:19.090, -0,077, -0,029, 0,997, 0,000, -0,305, -0,183, -2,357, 5,658, 16,831, 27,925, 138,850, -91,633, 36,16,,,,,,,, 0, 0,00, 0,00, 0,00, 0,98761, -0,02756, 0,04587, 0,14719,
 11:29:06.625,COM3, 2000-0-0 0:7:19.100, -0,080, -0,028, 0,986, 0,183, -0,305, -0,122, -2,357, 5,652, 16,831, 27,900, 138,842, -91,658, 36,16,,,,,,,, 0, 0,00, 0,00, 0,00, 0,98761, -0,02756, 0,04581, 0,14716,
 11:29:06.635,COM3, 2000-0-0 0:7:19.110, -0,071, -0,028, 1,001, 0,000, 0,122, -0,244, -2,351, 5,647, 16,826, 27,858, 138,850, -91,692, 36,16,,,,,,,, 0, 0,00, 0,00, 0,00, 0,98764, -0,02753, 0,04575, 0,14716,
 11:29:06.645,COM3, 2000-0-0 0:7:19.120, -0,082, -0,024, 0,988, 0,183, 0,183, -0,244, -2,351, 5,641, 16,826, 27,850, 138,858, -91,683, 36,16,,,,,,,, 0, 0,00, 0,00, 0,00, 0,98764, -0,02750, 0,04572, 0,14713,
 11:29:06.655,COM3, 2000-0-0 0:7:19.130, -0,073, -0,023, 0,997, 0,183, 0,305, -0,549, -2,346, 5,641, 16,820, 27,842, 138,858, -91,700, 36,16,,,,,,,, 0, 0,00, 0,00, 0,00, 0,98764, -0,02747, 0,04568, 0,14709,
 11:29:06.666,COM3, 2000-0-0 0:7:19.140, -0,078, -0,028, 0,979, 0,244, 0,488, -0,549, -2,346, 5,641, 16,815, 27,817, 138,883, -91,733, 36,10,,,,,,,, 0, 0,00, 0,00, 0,00, 0,98764, -0,02744, 0,04568, 0,14706,
 11:29:06.676,COM3, 2000-0-0 0:7:19.150, -0,064, -0,021, 0,995, 0,427, 0,671, -0,671, -2,335, 5,641, 16,809, 27,858, 138,925, -91,800, 36,10,,,,,,,, 0, 0,00, 0,00, 0,00, 0,98767, -0,02740, 0,04568, 0,14700,
 11:29:06.686,COM3, 2000-0-0 0:7:19.160, -0,071, -0,016, 0,977, 0,488, 0,488, -0,732, -2,329, 5,641, 16,804, 27,908, 138,950, -91,867, 36,23,,,,,,,, 0, 0,00, 0,00, 0,00, 0,98767, -0,02734, 0,04568, 0,14694,
 11:29:06.696,COM3, 2000-0-0 0:7:19.170, -0,059, -0,012, 0,996, 0,305, 0,122, -1,099, -2,324, 5,636, 16,793, 27,925, 138,933, -91,875, 36,04,,,,,,,, 0, 0,00, 0,00, 0,00, 0,98770, -0,02728, 0,04568, 0,14688,
 11:29:06.706,COM3, 2000-0-0 0:7:19.180, -0,070, -0,008, 0,984, 0,488, 0,122, -0,977, -2,313, 5,630, 16,782, 27,917, 138,883, -91,833, 36,16,,,,,,,, 0, 0,00, 0,00, 0,00, 0,98770, -0,02722, 0,04565, 0,14679,
 11:29:06.716,COM3, 2000-0-0 0:7:19.190, -0,053, 0,006, 0,997, 0,610, 0,000, -1,343, -2,302, 5,620, 16,771, 27,892, 138,850, -91,892, 36,10,,,,,,,, 0, 0,00, 0,00, 0,00, 0,98773, -0,02713, 0,04562, 0,14673,
 11:29:06.726,COM3, 2000-0-0 0:7:19.200, -0,072, 0,002, 0,981, 0,610, 0,122, -1,160, -2,291, 5,614, 16,760, 27,817, 138,850, -91,983, 36,04,,,,,,,, 0, 0,00, 0,00, 0,00, 0,98773, -0,02701, 0,04556, 0,14661,
 11:29:06.736,COM3, 2000-0-0 0:7:19.210, -0,077, -0,015, 1,002, 0,671, 0,000, -1,160, -2,280, 5,609, 16,749, 27,775, 138,858, -92,092, 36,29,,,,,,,, 0, 0,00, 0,00, 0,00, 0,98776, -0,02692, 0,04553, 0,14648,
 11:29:06.746,COM3, 2000-0-0 0:7:19.220, -0,083, -0,016, 0,986, 0,732, 0,183, -1,160, -2,269, 5,598, 16,732, 27,725, 138,825, -92,192, 36,23,,,,,,,, 0, 0,00, 0,00, 0,00, 0,98779, -0,02679, 0,04547, 0,14639,
 11:29:06.756,COM3, 2000-0-0 0:7:19.230, -0,076, -0,002, 0,988, 0,610, -0,244, -1,038, -2,258, 5,592, 16,721, 27,708, 138,775, -92,217, 36,10,,,,,,,, 0, 0,00, 0,00, 0,00, 0,98782, -0,02667, 0,04544, 0,14627,
 11:29:06.766,COM3, 2000-0-0 0:7:19.240, -0,075, -0,006, 0,986, 0,793, -0,122, -0,671, -2,241, 5,581, 16,716, 27,708, 138,758, -92,242, 36,10,,,,,,,, 0, 0,00, 0,00, 0,00, 0,98782, -0,02655, 0,04538, 0,14618,
 11:29:06.776,COM3, 2000-0-0 0:7:19.250, -0,059, 0,002, 1,002, 0,732, -0,122, -0,916, -2,225, 5,570, 16,710, 27,733, 138,775, -92,300, 36,16,,,,,,,, 0, 0,00, 0,00, 0,00, 0,98785, -0,02643, 0,04532, 0,14612,
 11:29:06.786,COM3, 2000-0-0 0:7:19.260, -0,091, -0,002, 0,993, 0,366, 0,183, -0,427, -2,214, 5,565, 16,705, 27,767, 138,800, -92,433, 36,16,,,,,,,, 0, 0,00, 0,00, 0,00, 0,98785, -0,02628, 0,04526, 0,14603,
 11:29:06.796,COM3, 2000-0-0 0:7:19.270, -0,076, 0,004, 1,001, 0,427, 0,000, -0,488, -2,203, 5,559, 16,699, 27,808, 138,850, -92,517, 36,23,,,,,,,, 0, 0,00, 0,00, 0,00, 0,98788, -0,02615, 0,04523, 0,14600,
 11:29:06.806,COM3, 2000-0-0 0:7:19.280, -0,079, 0,003, 0,979, 0,244, 0,366, 0,061, -2,192, 5,554, 16,699, 27,808, 138,875, -92,508, 36,04,,,,,,,, 0, 0,00, 0,00, 0,00, 0,98788, -0,02603, 0,04520, 0,14594,
 11:29:06.816,COM3, 2000-0-0 0:7:19.290, -0,087, 0,003, 0,990, 0,916, 0,000, 0,366, -2,175, 5,548, 16,699, 27,775, 138,850, -92,492, 36,29,,,,,,,, 0, 0,00, 0,00, 0,00, 0,98788, -0,02594, 0,04517, 0,14594,
